Folder: Materials_Characterization_Protocol/Data/Materials_HUB_Synchrotron_XRD

File: 314MA_re_OYJ_XRD.xy
10.00000 5579.900
10.42000 4904.700
10.84000 4584.000
11.26000 4010.100
11.68000 3687.700
12.10000 3578.900
12.52000 3379.500
12.94000 3172.500
13.36000 3233.700
13.78000 3550.100
14.20000 3102.000
14.62000 3147.900
15.04000 3043.500
15.46000 3032.000
15.88000 3378.300
16.30000 3527.100
16.72000 3540.500
17.14000 3774.600
17.56000 7086.400
17.98000 5165.100
18.40000 5009.100
18.82000 4434.100
19.24000 4465.500
19.66000 4460.600
20.08000 4702.300
20.50000 4017.500
20.92000 3630.300
21.34000 3258.900
21.76000 3077.500
22.18000 2923.700
22.60000 2603.000
23.02000 2550.700
23.44000 2147.000
23.86000 1953.000
24.28000 1812.500
24.70000 1709.500
25.12000 1646.300
25.54000 1647.000
25.96000 2811.600
26.38000 2013.500
26.80000 1636.400
27.22000 1731.900
27.64000 2677.900
28.06000 1627.100
28.48000 1338.000
28.90000 1586.700
29.32000 2966.900
29.74000 2647.200
30.16000 2269.700
30.58000 1295.000
31.00000 1280.700
31.42000 1770.100
31.84000 1008.700
32.26000 958.700
32.68000 974.000
33.10000 870.600
33.52000 814.600
33.94000 771.400
34.36000 934.100
34.78000 781.000
35.20000 752.600
35.62000 741.000
36.04000 669.500
36.46000 688.900
36.88000 695.600
37.30000 686.400
37.72000 682.200
38.14000 556.700
38.56000 548.400
38.98000 730.900
39.40000 927.900
39.82000 754.800
40.24000 463.300
40.66000 786.800
41.08000 446.400
41.50000 375.600
41.92000 378.400
42.34000 451.800
42.76000 377.300
43.18000 365.500
43.60000 543.200
44.02000 460.400
44.44000 472.400
44.86000 691.700
45.28000 485.300
45.70000 408.400
46.12000 454.700
46.54000 558.500
46.96000 462.000
47.38000 421.000
47.80000 849.400
48.22000 737.600
48.64000 337.200
49.06000 327.300
49.48000 290.700
49.90000 338.000
50.32000 418.100
50.74000 494.000
51.16000 315.100
51.58000 298.100
52.00000 435.900
52.42000 577.200
52.84000 489.400
53.26000 607.000
53.68000 528.800
54.10000 449.200
54.52000 485.200
54.94000 398.300
55.36000 365.600
55.78000 347.400
56.20000 345.400
56.62000 468.700
57.04000 915.900
57.46000 580.400
57.88000 405.400
58.30000 399.700
58.72000 425.100
59.14000 487.300
59.56000 344.800
59.98000 338.400
60.40000 381.500
60.82000 437.600
61.24000 320.100
61.66000 322.900
62.08000 363.100
62.50000 345.700
62.92000 311.200
63.34000 338.800
63.76000 338.300
64.18000 313.700
64.60000 277.800
65.02000 284.900
65.44000 332.500
65.86000 251.900
66.28000 270.600
66.70000 273.000
67.12000 301.100
67.54000 336.500
67.96000 317.000
68.38000 251.600
68.80000 268.500
69.22000 292.700
69.64000 274.600
70.06000 274.400
70.48000 270.400
70.90000 246.000
71.32000 265.700
71.74000 270.500
72.16000 400.400
72.58000 431.600
73.00000 352.000
73.42000 308.500
73.84000 288.700
74.26000 267.800
74.68000 244.300
75.10000 289.700
75.52000 328.900
75.94000 308.100
76.36000 291.200
76.78000 258.100
77.20000 234.500
77.62000 249.200
78.04000 260.700
78.46000 218.300
78.88000 265.700
79.30000 245.400
79.72000 232.400
80.14000 230.000
80.56000 240.500
80.98000 233.200
81.40000 217.100
81.82000 271.500
82.24000 223.500
82.66000 234.300
83.08000 247.400
83.50000 216.700
83.92000 252.700
84.34000 280.000
84.76000 266.600
85.18000 299.300
85.60000 254.100
86.02000 244.000
86.44000 229.500
86.86000 233.800
87.28000 252.200
87.70000 244.600
88.12000 253.700
88.54000 263.200
88.96000 249.700
89.38000 250.400
89.80000 241.600
90.22000 232.900
90.64000 247.700
91.06000 253.200
91.48000 296.200
91.90000 289.200
92.32000 284.800
92.74000 296.600
93.16000 270.700
93.58000 285.300
94.00000 292.300
94.42000 257.600
94.84000 256.500
95.26000 231.100
95.68000 229.100
96.10000 274.500
96.52000 241.400
96.94000 234.400
97.36000 215.100
97.78000 207.400
98.20000 230.400
98.62000 230.000
99.04000 233.900
99.46000 237.200
99.88000 264.800
100.3 259.800
100.72 305.800
101.14 313.000
101.56 300.100
101.98 322.800
102.4 283.700
102.82 259.300
103.24 262.600
103.66 232.600
104.08 247.400
104.5 243.100
104.92 227.900
105.34 246.600
105.76 238.800
106.18 241.400
106.6 222.700
107.02 217.600
107.44 228.700
107.86 226.700
108.28 259.900
108.7 243.400
109.12 278.000
109.54 269.800
109.96 261.300
110.38 264.800
110.8 274.000
111.22 231.200
111.64 213.800
112.06 241.600
112.48 241.200
112.9 259.700
113.32 212.000
113.74 251.100
114.16 229.800
114.58 272.100
115 291.200
115.42 292.300
115.84 271.300
116.26 290.500
116.68 261.700
117.1 263.200
117.52 246.500
117.94 226.700
118.36 262.900
118.78 237.900
119.2 222.700
119.62 239.500
120.04 216.400
120.46 209.400
120.88 248.700
121.3 237.000
121.72 245.600
122.14 196.100
122.56 213.600
122.98 217.100
123.4 226.800
123.82 206.600
124.24 208.500
124.66 197.300
125.08 258.800
125.5 238.800
125.92 206.900
126.34 199.000
126.76 220.500
127.18 224.400
127.6 238.100
128.02 208.500
128.44 219.200
128.86 230.100
129.28 231.100
129.7 236.400
130.12 200.300
130.54 203.600
130.96 223.200
131 224.700

File: CYJ_bg_LSiS414_108h-2_XRD.xy
10.50000 2690.500
10.90500 2599.400
11.31000 2343.900
11.71500 2108.700
12.12000 2034.200
12.52500 1793.800
12.93000 5171.200
13.33500 1712.900
13.74000 1662.100
14.14500 1723.000
14.55000 1664.100
14.95500 1706.500
15.36000 1681.100
15.76500 1764.300
16.17000 1746.000
16.57500 1844.600
16.98000 1946.200
17.38500 2128.600
17.79000 2184.600
18.19500 2288.200
18.60000 2346.200
19.00500 2423.100
19.41000 4804.300
19.81500 2265.500
20.22000 2191.700
20.62500 1995.100
21.03000 2042.000
21.43500 1796.600
21.84000 1634.100
22.24500 1428.900
22.65000 1356.600
23.05500 1233.600
23.46000 1109.400
23.86500 979.600
24.27000 923.900
24.67500 882.300
25.08000 837.400
25.48500 836.300
25.89000 1291.600
26.29500 864.800
26.70000 781.400
27.10500 3165.700
27.51000 706.200
27.91500 714.700
28.32000 641.700
28.72500 572.800
29.13000 14228.500
29.53500 830.600
29.94000 906.200
30.34500 927.700
30.75000 521.400
31.15500 494.600
31.56000 459.400
31.96500 501.100
32.37000 424.900
32.77500 462.700
33.18000 479.300
33.58500 410.600
33.99000 396.400
34.39500 350.600
34.80000 352.800
35.20500 330.900
35.61000 348.600
36.01500 322.100
36.42000 272.900
36.82500 256.600
37.23000 269.600
37.63500 216.600
38.04000 351.200
38.44500 238.800
38.85000 221.400
39.25500 227.800
39.66000 520.800
40.06500 454.600
40.47000 166.100
40.87500 149.100
41.28000 191.900
41.68500 150.900
42.09000 217.800
42.49500 457.300
42.90000 190.400
43.30500 139.300
43.71000 122.600
44.11500 139.300
44.52000 131.500
44.92500 278.100
45.33000 126.500
45.73500 170.500
46.14000 3801.900
46.54500 196.300
46.95000 681.100
47.35500 117.600
47.76000 152.600
48.16500 124.500
48.57000 213.500
48.97500 107.300
49.38000 113.100
49.78500 169.200
50.19000 163.500
50.59500 172.600
51.00000 512.900
51.40500 116.100
51.81000 138.500
52.21500 447.000
52.62000 176.900
53.02500 145.600
53.43000 347.100
53.83500 113.400
54.24000 165.300
54.64500 269.700
55.05000 167.100
55.45500 2516.100
55.86000 232.400
56.26500 338.500
56.67000 245.600
57.07500 349.200
57.48000 403.500
57.88500 212.800
58.29000 120.200
58.69500 116.100
59.10000 158.300
59.50500 115.300
59.91000 97.100
60.31500 152.300
60.72000 137.700
61.12500 219.400
61.53000 207.700
61.93500 186.200
62.34000 117.000
62.74500 162.800
63.15000 105.900
63.55500 98.200
63.96000 111.600
64.36500 108.000
64.77000 117.400
65.17500 185.800
65.58000 169.700
65.98500 116.900
66.39000 131.300
66.79500 141.400
67.20000 164.200
67.60500 134.700
68.01000 161.900
68.41500 188.200
68.82000 181.700
69.22500 123.600
69.63000 118.200
70.03500 185.600
70.44000 118.300
70.84500 115.900
71.25000 135.500
71.65500 191.100
72.06000 177.600
72.46500 162.200
72.87000 199.500
73.27500 356.600
73.68000 159.800
74.08500 137.200
74.49000 227.800
74.89500 138.400
75.30000 134.000
75.70500 525.700
76.11000 288.900
76.51500 139.300
76.92000 128.900
77.32500 161.300
77.73000 99.600
78.13500 118.300
78.54000 78.900
78.94500 100.100
79.35000 162.900
79.75500 173.800
80.16000 291.900
80.56500 382.100
80.97000 168.000
81.37500 171.700
81.78000 99.600
82.18500 306.500
82.59000 124.300
82.99500 258.500
83.40000 130.900
83.80500 445.300
84.21000 165.700
84.61500 162.800
85.02000 148.200
85.42500 134.600
85.83000 260.400
86.23500 193.600
86.64000 296.100
87.04500 153.600
87.45000 147.100
87.85500 103.100
88.26000 169.100
88.66500 168.200
89.07000 113.600
89.47500 187.000
89.88000 160.100
90.28500 327.300
90.69000 173.600
91.09500 277.000
91.50000 348.500
91.90500 110.400
92.31000 134.700
92.71500 145.500
93.12000 169.300
93.52500 155.200
93.93000 252.900
94.33500 296.800
94.74000 116.000
95.14500 274.000
95.55000 147.000
95.95500 237.800
96.36000 157.400
96.76500 197.400
97.17000 132.800
97.57500 114.600
97.98000 312.000
98.38500 194.900
98.79000 171.500
99.19500 240.300
99.60000 194.300
100.005 142.700
100.41 148.500
100.815 129.700
101.22 199.300
101.625 143.000
102.03 353.000
102.435 385.000
102.84 161.200
103.245 375.900
103.65 138.400
104.055 181.900
104.46 132.700
104.865 196.400
105.27 174.900
105.675 232.600
106.08 197.700
106.485 161.400
106.89 194.200
107.295 140.500
107.7 156.200
108.105 223.700
108.51 237.800
108.915 226.000
109.32 128.100
109.725 153.900
110.13 282.500
110.535 232.000
110.94 180.600
111.345 174.400
111.75 193.100
112.155 208.200
112.56 221.500
112.965 130.000
113.37 165.300
113.775 137.900
114.18 179.000
114.585 186.700
114.99 137.200
115.395 146.100
115.8 148.100
116.205 162.400
116.61 156.100
117.015 256.600
117.42 153.100
117.825 152.200
118.23 150.000
118.635 134.500
119.04 146.600
119.445 167.100
119.85 193.000
120.255 245.900
120.66 203.700
121.065 188.400
121.47 176.500
121.875 289.500
122.28 155.400
122.685 169.400
123.09 158.800
123.495 132.700
123.9 167.700
124.305 170.400
124.71 166.600
125.115 200.700
125.52 123.600
125.925 227.700
126.33 147.400
126.735 137.000
127.14 216.300
127.545 136.400
127.95 144.500
128.355 202.600
128.76 246.800
129.165 202.000
129.57 171.100
129.975 174.700
130.38 153.400
130.785 268.600
131 202.900

File: CYJ_cbg_LGPS_314+414_60h_XRD.xy
10.00000 2646.800
10.41000 2322.000
10.82000 2079.200
11.23000 1950.500
11.64000 1771.100
12.05000 1661.600
12.46000 2118.600
12.87000 1480.200
13.28000 1409.800
13.69000 1360.400
14.10000 2718.600
14.51000 1909.100
14.92000 1321.900
15.33000 1417.200
15.74000 1415.600
16.15000 1373.900
16.56000 1446.700
16.97000 1650.300
17.38000 2539.500
17.79000 1724.700
18.20000 1835.800
18.61000 1864.500
19.02000 1857.500
19.43000 1886.500
19.84000 1834.900
20.25000 5981.100
20.66000 1845.000
21.07000 1503.500
21.48000 1376.300
21.89000 1321.500
22.30000 1198.100
22.71000 1042.200
23.12000 1040.800
23.53000 1306.400
23.94000 3513.500
24.35000 777.600
24.76000 727.500
25.17000 685.900
25.58000 685.700
25.99000 656.100
26.40000 577.100
26.81000 583.200
27.22000 623.600
27.63000 519.500
28.04000 478.300
28.45000 553.000
28.86000 483.700
29.27000 603.500
29.68000 5555.700
30.09000 461.500
30.50000 476.200
30.91000 441.100
31.32000 429.400
31.73000 1178.100
32.14000 409.100
32.55000 444.000
32.96000 409.000
33.37000 1212.300
33.78000 361.700
34.19000 394.500
34.60000 357.400
35.01000 324.600
35.42000 280.000
35.83000 392.900
36.24000 305.600
36.65000 282.500
37.06000 271.300
37.47000 241.500
37.88000 597.400
38.29000 227.300
38.70000 219.200
39.11000 216.900
39.52000 231.700
39.93000 170.900
40.34000 171.600
40.75000 204.400
41.16000 507.100
41.57000 2525.400
41.98000 202.700
42.39000 562.700
42.80000 248.200
43.21000 297.300
43.62000 258.700
44.03000 180.300
44.44000 170.100
44.85000 148.900
45.26000 185.100
45.67000 189.600
46.08000 138.000
46.49000 136.700
46.90000 152.700
47.31000 213.500
47.72000 860.300
48.13000 132.200
48.54000 140.500
48.95000 165.000
49.36000 326.300
49.77000 116.900
50.18000 121.000
50.59000 148.200
51.00000 141.300
51.41000 131.500
51.82000 603.300
52.23000 241.600
52.64000 425.100
53.05000 421.200
53.46000 247.700
53.87000 291.700
54.28000 164.200
54.69000 173.800
55.10000 187.700
55.51000 274.300
55.92000 682.800
56.33000 169.900
56.74000 129.500
57.15000 128.700
57.56000 612.300
57.97000 173.700
58.38000 1032.400
58.79000 166.800
59.20000 305.400
59.61000 129.500
60.02000 143.000
60.43000 190.000
60.84000 664.300
61.25000 169.100
61.66000 199.800
62.07000 136.500
62.48000 131.100
62.89000 230.400
63.30000 122.100
63.71000 130.300
64.12000 171.600
64.53000 245.000
64.94000 124.500
65.35000 198.600
65.76000 196.600
66.17000 121.400
66.58000 175.800
66.99000 112.000
67.40000 105.100
67.81000 144.700
68.22000 138.100
68.63000 122.700
69.04000 174.900
69.45000 104.800
69.86000 153.200
70.27000 144.700
70.68000 139.000
71.09000 276.200
71.50000 207.700
71.91000 165.800
72.32000 271.800
72.73000 168.900
73.14000 116.800
73.55000 104.000
73.96000 103.300
74.37000 94.200
74.78000 100.700
75.19000 108.800
75.60000 338.300
76.01000 124.600
76.42000 243.900
76.83000 131.000
77.24000 131.100
77.65000 166.500
78.06000 119.100
78.47000 111.100
78.88000 115.900
79.29000 171.900
79.70000 225.800
80.11000 356.100
80.52000 148.700
80.93000 133.100
81.34000 118.300
81.75000 119.900
82.16000 112.500
82.57000 115.700
82.98000 173.600
83.39000 96.200
83.80000 246.800
84.21000 175.900
84.62000 135.500
85.03000 109.200
85.44000 106.400
85.85000 139.400
86.26000 143.700
86.67000 121.100
87.08000 105.100
87.49000 269.700
87.90000 139.300
88.31000 150.100
88.72000 160.800
89.13000 139.500
89.54000 164.400
89.95000 192.300
90.36000 241.900
90.77000 161.900
91.18000 150.200
91.59000 151.200
92.00000 126.600
92.41000 133.200
92.82000 141.700
93.23000 132.900
93.64000 163.000
94.05000 170.100
94.46000 159.700
94.87000 104.800
95.28000 144.800
95.69000 159.800
96.10000 199.300
96.51000 170.000
96.92000 118.600
97.33000 134.400
97.74000 159.000
98.15000 195.000
98.56000 172.700
98.97000 124.500
99.38000 160.700
99.79000 148.000
100.2 120.300
100.61 122.600
101.02 164.600
101.43 132.400
101.84 139.900
102.25 140.100
102.66 135.800
103.07 132.300
103.48 137.400
103.89 122.200
104.3 104.300
104.71 168.400
105.12 120.500
105.53 220.800
105.94 133.900
106.35 150.200
106.76 140.200
107.17 156.400
107.58 142.600
107.99 99.100
108.4 157.400
108.81 177.300
109.22 178.900
109.63 181.200
110.04 165.400
110.45 186.700
110.86 127.700
111.27 113.600
111.68 130.800
112.09 140.000
112.5 118.900
112.91 147.000
113.32 174.700
113.73 133.700
114.14 143.300
114.55 139.800
114.96 151.000
115.37 137.800
115.78 133.800
116.19 120.800
116.6 145.900
117.01 126.400
117.42 154.800
117.83 126.000
118.24 121.700
118.65 117.700
119.06 121.900
119.47 157.600
119.88 141.200
120.29 121.900
120.7 118.700
121.11 116.900
121.52 136.100
121.93 130.700
122.34 123.800
122.75 144.800
123.16 121.700
123.57 134.400
123.98 117.000
124.39 112.300
124.8 179.300
125.21 139.200
125.62 135.400
126.03 143.800
126.44 120.200
126.85 86.700
127.26 115.700
127.67 115.800
128.08 138.200
128.49 121.600
128.9 114.200
129.31 133.800
129.72 133.000
130.13 134.400
130.54 126.000
130.95 124.200
131 138.900

File: CYJ_LGeS414_g_144h_XRD.xy
10.00000 2070.500
10.40500 1818.200
10.81000 1504.800
11.21500 1491.900
11.62000 1251.800
12.02500 1302.200
12.43000 1109.800
12.83500 1166.400
13.24000 1039.500
13.64500 1133.400
14.05000 1020.700
14.45500 1041.700
14.86000 1054.100
15.26500 1055.100
15.67000 1118.800
16.07500 1157.900
16.48000 1217.800
16.88500 1248.800
17.29000 1315.000
17.69500 1363.600
18.10000 1429.100
18.50500 1910.800
18.91000 1477.000
19.31500 1764.500
19.72000 1499.200
20.12500 1430.300
20.53000 1349.800
20.93500 1304.700
21.34000 1210.500
21.74500 1071.800
22.15000 918.800
22.55500 843.500
22.96000 1086.100
23.36500 692.100
23.77000 668.800
24.17500 655.400
24.58000 579.600
24.98500 515.200
25.39000 541.300
25.79500 450.900
26.20000 491.600
26.60500 639.400
27.01000 407.700
27.41500 444.100
27.82000 370.700
28.22500 395.000
28.63000 417.800
29.03500 461.900
29.44000 1278.900
29.84500 535.500
30.25000 395.200
30.65500 289.000
31.06000 280.500
31.46500 308.100
31.87000 307.400
32.27500 303.400
32.68000 247.300
33.08500 280.100
33.49000 433.300
33.89500 316.200
34.30000 252.400
34.70500 263.500
35.11000 393.100
35.51500 233.700
35.92000 200.100
36.32500 197.600
36.73000 160.200
37.13500 215.000
37.54000 162.400
37.94500 224.700
38.35000 150.500
38.75500 347.900
39.16000 603.900
39.56500 175.500
39.97000 126.800
40.37500 134.400
40.78000 106.100
41.18500 105.200
41.59000 252.300
41.99500 98.500
42.40000 461.100
42.80500 175.500
43.21000 343.800
43.61500 132.000
44.02000 94.700
44.42500 72.000
44.83000 768.600
45.23500 85.300
45.64000 274.700
46.04500 70.200
46.45000 394.000
46.85500 100.100
47.26000 82.800
47.66500 59.100
48.07000 107.300
48.47500 64.700
48.88000 177.400
49.28500 81.300
49.69000 74.800
50.09500 228.500
50.50000 105.700
50.90500 240.900
51.31000 156.600
51.71500 88.700
52.12000 79.600
52.52500 118.400
52.93000 71.300
53.33500 128.100
53.74000 115.600
54.14500 123.300
54.55000 80.900
54.95500 1960.000
55.36000 123.400
55.76500 522.700
56.17000 178.500
56.57500 78.000
56.98000 70.500
57.38500 89.000
57.79000 75.800
58.19500 71.000
58.60000 74.000
59.00500 58.700
59.41000 62.600
59.81500 78.700
60.22000 206.000
60.62500 106.300
61.03000 177.700
61.43500 375.300
61.84000 180.500
62.24500 92.000
62.65000 90.800
63.05500 132.300
63.46000 95.100
63.86500 60.100
64.27000 79.900
64.67500 53.100
65.08000 53.600
65.48500 246.300
65.89000 171.800
66.29500 137.600
66.70000 183.100
67.10500 58.100
67.51000 62.600
67.91500 202.700
68.32000 105.100
68.72500 51.600
69.13000 54.800
69.53500 58.800
69.94000 78.700
70.34500 98.100
70.75000 42.000
71.15500 86.400
71.56000 164.100
71.96500 199.700
72.37000 162.800
72.77500 96.000
73.18000 86.600
73.58500 92.000
73.99000 64.700
74.39500 37.000
74.80000 87.700
75.20500 106.800
75.61000 60.500
76.01500 50.300
76.42000 49.200
76.82500 105.700
77.23000 131.900
77.63500 51.800
78.04000 49.800
78.44500 210.900
78.85000 66.800
79.25500 102.000
79.66000 62.700
80.06500 84.700
80.47000 100.200
80.87500 68.600
81.28000 127.600
81.68500 67.200
82.09000 49.700
82.49500 71.000
82.90000 100.400
83.30500 97.000
83.71000 75.600
84.11500 219.400
84.52000 64.000
84.92500 73.000
85.33000 79.600
85.73500 91.000
86.14000 113.800
86.54500 155.500
86.95000 73.900
87.35500 55.800
87.76000 63.300
88.16500 160.000
88.57000 193.500
88.97500 56.000
89.38000 132.800
89.78500 74.600
90.19000 90.000
90.59500 71.400
91.00000 65.500
91.40500 383.400
91.81000 97.700
92.21500 42.900
92.62000 84.600
93.02500 74.400
93.43000 139.800
93.83500 112.400
94.24000 82.100
94.64500 110.000
95.05000 90.200
95.45500 76.200
95.86000 169.000
96.26500 73.100
96.67000 97.400
97.07500 69.000
97.48000 53.100
97.88500 133.200
98.29000 112.100
98.69500 78.900
99.10000 64.800
99.50500 111.100
99.91000 51.500
100.315 85.500
100.72 83.300
101.125 118.300
101.53 100.200
101.935 244.100
102.34 80.300
102.745 83.500
103.15 128.400
103.555 67.700
103.96 61.600
104.365 64.600
104.77 93.900
105.175 85.500
105.58 68.900
105.985 106.200
106.39 50.000
106.795 62.400
107.2 80.400
107.605 60.100
108.01 92.000
108.415 122.500
108.82 146.300
109.225 82.100
109.63 95.400
110.035 192.200
110.44 46.200
110.845 74.900
111.25 113.700
111.655 88.700
112.06 82.800
112.465 57.300
112.87 73.500
113.275 123.900
113.68 80.100
114.085 83.000
114.49 85.400
114.895 103.600
115.3 67.400
115.705 101.000
116.11 78.900
116.515 57.900
116.92 89.200
117.325 73.800
117.73 80.300
118.135 69.200
118.54 71.100
118.945 66.300
119.35 95.300
119.755 125.300
120.16 106.600
120.565 68.900
120.97 91.600
121.375 61.000
121.78 72.500
122.185 82.300
122.59 63.400
122.995 85.900
123.4 71.500
123.805 73.600
124.21 114.300
124.615 65.100
125.02 65.300
125.425 96.800
125.83 64.800
126.235 55.200
126.64 51.100
127.045 84.900
127.45 68.400
127.855 86.500
128.26 71.800
128.665 78.100
129.07 64.100
129.475 89.300
129.88 142.100
130.285 68.100
130.69 54.900
131 101.300

File: CYJ_LPSBr6151_gc_XRD.xy
10.00000 1753.900
10.40500 1456.500
10.81000 1431.500
11.21500 1293.100
11.62000 1113.600
12.02500 1174.700
12.43000 1019.700
12.83500 999.800
13.24000 905.200
13.64500 964.700
14.05000 881.000
14.45500 900.400
14.86000 862.100
15.26500 946.600
15.67000 1000.900
16.07500 1018.800
16.48000 1042.300
16.88500 1129.400
17.29000 1110.000
17.69500 1330.700
18.10000 1226.000
18.50500 1277.100
18.91000 1295.800
19.31500 1380.800
19.72000 1303.100
20.12500 1261.700
20.53000 1144.800
20.93500 1074.700
21.34000 1012.400
21.74500 868.700
22.15000 861.900
22.55500 686.000
22.96000 777.400
23.36500 696.300
23.77000 556.100
24.17500 557.300
24.58000 557.900
24.98500 506.500
25.39000 672.700
25.79500 407.900
26.20000 431.800
26.60500 347.800
27.01000 351.500
27.41500 371.000
27.82000 315.800
28.22500 366.200
28.63000 319.800
29.03500 337.200
29.44000 359.300
29.84500 498.100
30.25000 316.000
30.65500 298.200
31.06000 3842.000
31.46500 281.700
31.87000 281.600
32.27500 228.700
32.68000 304.100
33.08500 235.900
33.49000 219.000
33.89500 242.200
34.30000 223.400
34.70500 216.300
35.11000 201.700
35.51500 170.800
35.92000 173.300
36.32500 146.500
36.73000 165.600
37.13500 138.300
37.54000 132.000
37.94500 128.200
38.35000 114.800
38.75500 100.200
39.16000 109.900
39.56500 120.800
39.97000 101.200
40.37500 152.100
40.78000 92.500
41.18500 84.700
41.59000 107.800
41.99500 96.600
42.40000 74.900
42.80500 93.700
43.21000 87.300
43.61500 67.200
44.02000 79.000
44.42500 351.300
44.83000 94.600
45.23500 99.100
45.64000 70.200
46.04500 71.500
46.45000 76.300
46.85500 149.300
47.26000 242.300
47.66500 108.200
48.07000 71.000
48.47500 54.800
48.88000 67.600
49.28500 64.600
49.69000 77.500
50.09500 61.100
50.50000 66.900
50.90500 104.500
51.31000 94.400
51.71500 184.600
52.12000 109.300
52.52500 90.800
52.93000 70.400
53.33500 96.900
53.74000 76.200
54.14500 67.700
54.55000 72.300
54.95500 67.000
55.36000 120.500
55.76500 70.800
56.17000 72.500
56.57500 78.400
56.98000 55.300
57.38500 62.100
57.79000 60.900
58.19500 102.800
58.60000 905.700
59.00500 80.300
59.41000 60.100
59.81500 63.100
60.22000 69.700
60.62500 76.800
61.03000 126.200
61.43500 68.300
61.84000 124.700
62.24500 62.000
62.65000 59.900
63.05500 57.300
63.46000 50.600
63.86500 61.900
64.27000 59.500
64.67500 58.600
65.08000 63.200
65.48500 67.300
65.89000 67.200
66.29500 56.000
66.70000 59.900
67.10500 75.000
67.51000 74.400
67.91500 88.800
68.32000 59.300
68.72500 66.000
69.13000 65.600
69.53500 75.700
69.94000 71.900
70.34500 67.000
70.75000 2262.300
71.15500 66.200
71.56000 65.100
71.96500 74.400
72.37000 65.400
72.77500 207.000
73.18000 86.900
73.58500 68.800
73.99000 63.300
74.39500 71.400
74.80000 67.100
75.20500 74.700
75.61000 75.500
76.01500 68.700
76.42000 269.500
76.82500 58.200
77.23000 65.600
77.63500 59.900
78.04000 58.600
78.44500 74.900
78.85000 63.500
79.25500 279.700
79.66000 63.200
80.06500 65.500
80.47000 70.600
80.87500 45.900
81.28000 80.300
81.68500 68.500
82.09000 239.500
82.49500 59.300
82.90000 55.100
83.30500 58.200
83.71000 64.000
84.11500 968.100
84.52000 77.800
84.92500 79.900
85.33000 56.400
85.73500 44.500
86.14000 62.900
86.54500 58.300
86.95000 68.700
87.35500 57.400
87.76000 52.900
88.16500 48.000
88.57000 53.500
88.97500 57.900
89.38000 57.700
89.78500 55.300
90.19000 50.400
90.59500 65.100
91.00000 50.900
91.40500 68.000
91.81000 62.700
92.21500 54.700
92.62000 58.600
93.02500 286.700
93.43000 69.300
93.83500 74.500
94.24000 56.100
94.64500 53.000
95.05000 162.700
95.45500 49.400
95.86000 69.300
96.26500 57.700
96.67000 47.000
97.07500 61.200
97.48000 61.600
97.88500 59.500
98.29000 99.700
98.69500 79.400
99.10000 81.900
99.50500 60.700
99.91000 54.800
100.315 55.300
100.72 50.400
101.125 64.800
101.53 59.800
101.935 59.700
102.34 59.400
102.745 62.800
103.15 66.200
103.555 66.600
103.96 135.400
104.365 71.100
104.77 57.400
105.175 57.300
105.58 56.000
105.985 73.400
106.39 97.100
106.795 69.300
107.2 58.200
107.605 50.900
108.01 52.500
108.415 49.300
108.82 53.600
109.225 52.700
109.63 43.100
110.035 50.700
110.44 58.300
110.845 61.500
111.25 57.700
111.655 47.200
112.06 73.700
112.465 60.700
112.87 134.900
113.275 40.200
113.68 64.700
114.085 42.600
114.49 38.700
114.895 68.300
115.3 54.500
115.705 80.200
116.11 60.200
116.515 37.200
116.92 47.300
117.325 55.000
117.73 60.100
118.135 170.400
118.54 58.600
118.945 49.000
119.35 47.000
119.755 49.600
120.16 38.600
120.565 47.200
120.97 59.300
121.375 65.200
121.78 53.400
122.185 113.700
122.59 64.200
122.995 49.600
123.4 60.100
123.805 67.000
124.21 47.400
124.615 78.500
125.02 63.900
125.425 149.500
125.83 51.200
126.235 44.300
126.64 60.900
127.045 45.200
127.45 48.600
127.855 50.600
128.26 52.400
128.665 78.100
129.07 59.800
129.475 49.500
129.88 50.300
130.285 59.600
130.5 55.600