Folder: Materials_Characterization_Protocol/Data/Materials_HUB_Synchrotron_XRD (part 2)

File: CYJ_LPSCl6151_gc_XRD.xy
10.00000 1538.500
10.40500 1463.000
10.81000 1445.300
11.21500 1310.200
11.62000 1105.500
12.02500 1017.700
12.43000 873.100
12.83500 898.700
13.24000 905.100
13.64500 831.600
14.05000 895.100
14.45500 894.800
14.86000 896.800
15.26500 863.900
15.67000 1170.900
16.07500 1008.400
16.48000 960.000
16.88500 1138.500
17.29000 1125.200
17.69500 1261.200
18.10000 1306.800
18.50500 1239.200
18.91000 1303.900
19.31500 1199.000
19.72000 1219.200
20.12500 1150.200
20.53000 1080.000
20.93500 996.600
21.34000 903.800
21.74500 849.500
22.15000 829.500
22.55500 778.400
22.96000 719.400
23.36500 640.100
23.77000 557.400
24.17500 511.200
24.58000 491.400
24.98500 445.100
25.39000 458.600
25.79500 461.000
26.20000 397.000
26.60500 405.200
27.01000 367.000
27.41500 372.700
27.82000 338.000
28.22500 335.500
28.63000 314.300
29.03500 311.800
29.44000 296.900
29.84500 390.400
30.25000 615.500
30.65500 296.500
31.06000 253.400
31.46500 801.300
31.87000 260.600
32.27500 261.300
32.68000 257.000
33.08500 282.200
33.49000 225.600
33.89500 244.900
34.30000 184.900
34.70500 234.400
35.11000 194.400
35.51500 171.500
35.92000 180.800
36.32500 164.000
36.73000 169.800
37.13500 135.600
37.54000 150.000
37.94500 114.300
38.35000 113.500
38.75500 104.500
39.16000 110.300
39.56500 94.300
39.97000 286.300
40.37500 95.400
40.78000 88.000
41.18500 88.200
41.59000 98.200
41.99500 70.800
42.40000 83.800
42.80500 77.100
43.21000 74.600
43.61500 68.300
44.02000 67.600
44.42500 90.100
44.83000 74.900
45.23500 3501.500
45.64000 88.300
46.04500 70.200
46.45000 77.700
46.85500 53.800
47.26000 69.200
47.66500 70.500
48.07000 591.900
48.47500 70.700
48.88000 83.400
49.28500 49.100
49.69000 90.000
50.09500 56.300
50.50000 65.200
50.90500 71.200
51.31000 71.900
51.71500 76.200
52.12000 91.400
52.52500 196.700
52.93000 115.800
53.33500 119.700
53.74000 69.500
54.14500 81.800
54.55000 79.800
54.95500 85.000
55.36000 693.900
55.76500 60.800
56.17000 230.800
56.57500 70.400
56.98000 74.100
57.38500 58.000
57.79000 54.600
58.19500 68.100
58.60000 76.700
59.00500 78.000
59.41000 170.400
59.81500 65.800
60.22000 69.900
60.62500 51.100
61.03000 71.400
61.43500 65.400
61.84000 125.700
62.24500 62.500
62.65000 179.600
63.05500 68.800
63.46000 57.300
63.86500 59.000
64.27000 50.100
64.67500 58.500
65.08000 61.800
65.48500 51.700
65.89000 64.700
66.29500 61.100
66.70000 54.200
67.10500 54.300
67.51000 52.000
67.91500 61.700
68.32000 66.700
68.72500 54.900
69.13000 58.800
69.53500 52.100
69.94000 53.800
70.34500 47.700
70.75000 48.700
71.15500 58.900
71.56000 66.600
71.96500 657.700
72.37000 61.700
72.77500 71.300
73.18000 63.100
73.58500 69.100
73.99000 122.600
74.39500 73.800
74.80000 80.900
75.20500 49.900
75.61000 70.200
76.01500 48.200
76.42000 48.400
76.82500 70.500
77.23000 60.900
77.63500 97.600
78.04000 64.200
78.44500 50.900
78.85000 65.800
79.25500 47.200
79.66000 53.900
80.06500 58.200
80.47000 62.400
80.87500 53.800
81.28000 47.000
81.68500 58.000
82.09000 59.000
82.49500 70.000
82.90000 57.400
83.30500 98.600
83.71000 75.700
84.11500 52.600
84.52000 59.600
84.92500 56.400
85.33000 74.700
85.73500 203.000
86.14000 73.600
86.54500 68.800
86.95000 50.200
87.35500 61.300
87.76000 54.300
88.16500 55.900
88.57000 61.400
88.97500 58.200
89.38000 53.800
89.78500 51.800
90.19000 62.400
90.59500 72.400
91.00000 61.100
91.40500 91.700
91.81000 49.900
92.21500 56.300
92.62000 54.700
93.02500 45.300
93.43000 59.300
93.83500 57.200
94.24000 48.600
94.64500 74.200
95.05000 57.800
95.45500 55.200
95.86000 60.800
96.26500 72.900
96.67000 73.100
97.07500 110.200
97.48000 72.400
97.88500 71.500
98.29000 63.000
98.69500 55.100
99.10000 72.100
99.50500 48.000
99.91000 68.600
100.315 80.400
100.72 89.500
101.125 82.800
101.53 52.600
101.935 66.200
102.34 58.900
102.745 76.500
103.15 67.700
103.555 54.000
103.96 41.200
104.365 60.300
104.77 78.200
105.175 51.700
105.58 55.500
105.985 67.800
106.39 230.000
106.795 71.200
107.2 50.500
107.605 51.800
108.01 54.100
108.415 78.800
108.82 52.600
109.225 97.600
109.63 56.300
110.035 69.600
110.44 52.900
110.845 64.400
111.25 54.100
111.655 44.400
112.06 51.300
112.465 47.700
112.87 56.300
113.275 49.400
113.68 58.600
114.085 57.700
114.49 52.300
114.895 71.700
115.3 58.300
115.705 53.300
116.11 51.500
116.515 50.500
116.92 51.600
117.325 52.800
117.73 42.900
118.135 55.700
118.54 116.500
118.945 63.700
119.35 46.400
119.755 53.500
120.16 65.100
120.565 42.800
120.97 91.200
121.375 57.300
121.78 52.800
122.185 61.100
122.59 50.800
122.995 53.300
123.4 43.700
123.805 47.500
124.21 44.600
124.615 51.200
125.02 71.500
125.425 85.800
125.83 52.700
126.235 56.800
126.64 42.300
127.045 54.700
127.45 48.400
127.855 103.000
128.26 55.600
128.665 63.100
129.07 50.100
129.475 56.200
129.88 39.300
130.285 56.900
130.5 46.900

File: CYJ_LPSI6151_gc_XRD.xy
10.00000 1586.500
10.40500 1411.200
10.81000 1378.900
11.21500 1195.300
11.62000 1094.400
12.02500 1016.200
12.43000 843.900
12.83500 825.400
13.24000 844.900
13.64500 797.900
14.05000 823.300
14.45500 861.400
14.86000 851.200
15.26500 873.200
15.67000 802.400
16.07500 798.300
16.48000 955.400
16.88500 992.400
17.29000 1066.100
17.69500 1116.500
18.10000 1216.900
18.50500 1101.600
18.91000 1115.400
19.31500 1147.100
19.72000 1093.100
20.12500 1101.300
20.53000 1015.000
20.93500 920.700
21.34000 911.800
21.74500 809.200
22.15000 772.200
22.55500 672.900
22.96000 639.200
23.36500 587.600
23.77000 559.500
24.17500 508.400
24.58000 451.600
24.98500 922.000
25.39000 480.100
25.79500 397.200
26.20000 353.100
26.60500 354.800
27.01000 347.100
27.41500 338.400
27.82000 346.900
28.22500 304.900
28.63000 303.700
29.03500 371.200
29.44000 463.000
29.84500 271.600
30.25000 293.100
30.65500 1315.500
31.06000 294.400
31.46500 256.100
31.87000 277.400
32.27500 263.000
32.68000 243.200
33.08500 220.000
33.49000 189.500
33.89500 206.800
34.30000 208.700
34.70500 213.000
35.11000 191.500
35.51500 662.800
35.92000 170.400
36.32500 191.200
36.73000 147.300
37.13500 138.900
37.54000 152.600
37.94500 123.800
38.35000 135.400
38.75500 244.600
39.16000 97.200
39.56500 103.000
39.97000 179.500
40.37500 102.800
40.78000 88.700
41.18500 89.900
41.59000 76.900
41.99500 69.600
42.40000 58.300
42.80500 73.600
43.21000 65.400
43.61500 121.800
44.02000 196.200
44.42500 92.800
44.83000 60.600
45.23500 68.900
45.64000 72.800
46.04500 80.700
46.45000 133.400
46.85500 154.400
47.26000 64.200
47.66500 66.700
48.07000 70.300
48.47500 65.100
48.88000 65.400
49.28500 63.500
49.69000 53.100
50.09500 64.200
50.50000 74.600
50.90500 139.600
51.31000 139.500
51.71500 62.600
52.12000 62.600
52.52500 68.500
52.93000 76.800
53.33500 53.000
53.74000 78.300
54.14500 67.500
54.55000 93.300
54.95500 59.600
55.36000 53.300
55.76500 62.000
56.17000 51.400
56.57500 59.800
56.98000 58.500
57.38500 89.500
57.79000 97.600
58.19500 68.500
58.60000 61.900
59.00500 58.600
59.41000 62.100
59.81500 77.000
60.22000 79.500
60.62500 146.500
61.03000 79.800
61.43500 66.500
61.84000 59.300
62.24500 63.700
62.65000 46.600
63.05500 66.000
63.46000 64.100
63.86500 63.900
64.27000 59.500
64.67500 68.900
65.08000 54.800
65.48500 69.300
65.89000 86.200
66.29500 76.400
66.70000 1247.600
67.10500 67.700
67.51000 59.000
67.91500 67.500
68.32000 57.700
68.72500 57.500
69.13000 64.100
69.53500 1497.700
69.94000 63.700
70.34500 73.600
70.75000 54.600
71.15500 73.700
71.56000 219.100
71.96500 91.800
72.37000 61.800
72.77500 56.400
73.18000 52.200
73.58500 50.200
73.99000 62.600
74.39500 58.700
74.80000 65.700
75.20500 201.600
75.61000 57.900
76.01500 45.600
76.42000 56.100
76.82500 68.200
77.23000 235.000
77.63500 64.600
78.04000 77.200
78.44500 59.600
78.85000 59.100
79.25500 56.800
79.66000 52.000
80.06500 73.400
80.47000 158.700
80.87500 81.300
81.28000 54.900
81.68500 55.400
82.09000 72.000
82.49500 127.100
82.90000 76.600
83.30500 610.200
83.71000 61.900
84.11500 64.500
84.52000 50.700
84.92500 57.400
85.33000 49.500
85.73500 67.600
86.14000 64.400
86.54500 54.800
86.95000 41.400
87.35500 62.200
87.76000 64.600
88.16500 71.200
88.57000 142.600
88.97500 64.200
89.38000 52.800
89.78500 57.100
90.19000 49.900
90.59500 55.000
91.00000 60.000
91.40500 108.100
91.81000 53.300
92.21500 61.900
92.62000 63.800
93.02500 81.000
93.43000 102.000
93.83500 58.300
94.24000 58.800
94.64500 61.500
95.05000 59.300
95.45500 59.100
95.86000 71.700
96.26500 92.200
96.67000 865.300
97.07500 73.400
97.48000 49.200
97.88500 44.100
98.29000 60.500
98.69500 112.300
99.10000 76.400
99.50500 61.200
99.91000 63.100
100.315 61.400
100.72 75.600
101.125 52.300
101.53 86.000
101.935 225.700
102.34 77.200
102.745 73.500
103.15 65.900
103.555 69.500
103.96 165.400
104.365 80.500
104.77 294.300
105.175 72.900
105.58 70.900
105.985 71.300
106.39 56.900
106.795 72.200
107.2 70.400
107.605 55.900
108.01 66.400
108.415 61.700
108.82 72.100
109.225 56.900
109.63 77.200
110.035 61.900
110.44 208.300
110.845 58.000
111.25 70.100
111.655 53.100
112.06 55.900
112.465 67.400
112.87 61.100
113.275 404.400
113.68 75.700
114.085 75.200
114.49 60.200
114.895 61.900
115.3 105.900
115.705 74.900
116.11 63.900
116.515 87.400
116.92 62.100
117.325 61.400
117.73 54.400
118.135 67.900
118.54 65.900
118.945 86.400
119.35 84.700
119.755 66.300
120.16 70.800
120.565 70.900
120.97 60.800
121.375 85.600
121.78 82.800
122.185 144.500
122.59 63.700
122.995 66.900
123.4 68.100
123.805 73.900
124.21 77.600
124.615 70.600
125.02 84.500
125.425 236.400
125.83 65.100
126.235 62.200
126.64 83.600
127.045 74.600
127.45 60.700
127.855 114.000
128.26 91.600
128.665 123.500
129.07 94.600
129.475 75.100
129.88 84.000
130.285 66.600
130.5 71.600

File: CYJ_PSO_4-16_XRD.xy
10.30000 3168.180
10.70500 2983.310
11.11000 2752.016
11.51500 2420.723
11.92000 2275.489
12.32500 2068.621
12.73000 2019.306
13.13500 2042.213
13.54000 1878.898
13.94500 1835.885
14.35000 1879.299
14.75500 1923.457
15.16000 2085.816
15.56500 1884.260
15.97000 2043.403
16.37500 2018.766
16.78000 2175.168
17.18500 2206.886
17.59000 2338.565
17.99500 2527.402
18.40000 2622.959
18.80500 2681.133
19.21000 2552.501
19.61500 2500.260
20.02000 2465.543
20.42500 2289.966
20.83000 2166.491
21.23500 2140.460
21.64000 1878.152
22.04500 1673.047
22.45000 1501.832
22.85500 1407.820
23.26000 1261.026
23.66500 1148.141
24.07000 1096.782
24.47500 1007.535
24.88000 2094.528
25.28500 954.448
25.69000 1038.844
26.09500 816.144
26.50000 767.770
26.90500 726.788
27.31000 718.946
27.71500 722.726
28.12000 861.567
28.52500 604.115
28.93000 541.924
29.33500 705.792
29.74000 735.287
30.14500 641.686
30.54500 573.886
30.95000 484.256
31.35500 479.453
31.76000 501.085
32.16500 658.979
32.57000 515.333
32.97500 475.382
33.38000 468.918
33.78500 535.996
34.19000 417.773
34.59500 320.509
35.00000 329.200
35.40500 343.855
35.81000 327.907
36.21500 295.234
36.62000 265.844
37.02500 336.675
37.43000 215.167
37.83500 229.216
38.24000 221.222
38.64500 2654.223
39.05000 201.255
39.45500 196.123
39.86000 276.035
40.26500 169.181
40.67000 154.937
41.07500 180.640
41.48000 259.871
41.88500 146.311
42.29000 135.018
42.69500 297.346
43.10000 149.003
43.50500 120.319
43.91000 144.822
44.31500 274.209
44.72000 110.540
45.12500 117.502
45.53000 546.370
45.93500 123.230
46.34000 89.729
46.74500 161.456
47.15000 123.504
47.55500 147.855
47.96000 99.319
48.36500 111.682
48.77000 135.879
49.17500 101.407
49.58000 702.513
49.98500 100.608
50.39000 128.638
50.79000 102.755
51.19500 257.072
51.60000 120.185
52.00500 95.379
52.41000 150.192
52.81500 100.895
53.22000 136.760
53.62500 108.580
54.03000 112.241
54.43500 1073.473
54.84000 81.021
55.24500 87.715
55.65000 310.687
56.05500 113.231
56.46000 111.094
56.86500 92.705
57.27000 104.133
57.67500 258.778
58.08000 158.339
58.48500 92.845
58.89000 128.096
59.29500 90.544
59.70000 86.243
60.10500 96.692
60.51000 90.566
60.91500 169.358
61.32000 103.843
61.72500 95.190
62.13000 151.612
62.53500 95.604
62.94000 103.454
63.34500 1664.048
63.75000 107.246
64.15500 99.888
64.56000 110.733
64.96500 660.963
65.37000 153.116
65.77500 80.627
66.18000 125.165
66.58500 98.721
66.99000 113.167
67.39500 67.620
67.80000 95.992
68.20500 100.503
68.61000 112.624
69.01500 109.314
69.42000 218.861
69.82500 87.966
70.23000 85.133
70.63000 82.733
71.03500 101.253
71.44000 92.454
71.84500 109.507
72.25000 144.951
72.65500 114.685
73.06000 155.686
73.46500 806.667
73.87000 152.915
74.27500 95.960
74.68000 105.350
75.08500 123.936
75.49000 124.397
75.89500 105.967
76.30000 83.637
76.70500 84.012
77.11000 88.876
77.51500 81.846
77.92000 89.382
78.32500 80.844
78.73000 75.153
79.13500 73.536
79.54000 123.307
79.94500 124.325
80.35000 98.048
80.75500 106.622
81.16000 95.839
81.56500 96.213
81.97000 83.105
82.37500 165.204
82.78000 105.618
83.18500 124.959
83.59000 86.359
83.99500 97.300
84.40000 98.604
84.80500 105.078
85.21000 109.224
85.61500 89.977
86.02000 103.631
86.42500 85.975
86.83000 75.662
87.23500 111.177
87.64000 315.168
88.04500 161.645
88.45000 133.443
88.85500 105.004
89.26000 72.175
89.66500 85.226
90.07000 106.086
90.47500 82.445
90.87500 92.929
91.28000 100.396
91.68500 86.227
92.09000 89.476
92.49500 69.290
92.90000 86.328
93.30500 84.646
93.71000 132.874
94.11500 76.276
94.52000 75.358
94.92500 82.962
95.33000 84.427
95.73500 369.433
96.14000 107.955
96.54500 263.016
96.95000 148.238
97.35500 81.145
97.76000 109.140
98.16500 83.763
98.57000 128.785
98.97500 88.374
99.38000 98.653
99.78500 191.368
100.19 81.956
100.595 84.039
101 71.123
101.405 86.486
101.81 72.744
102.215 76.665
102.62 101.184
103.025 84.108
103.43 77.252
103.835 83.090
104.24 77.420
104.645 80.312
105.05 87.394
105.455 220.166
105.86 80.795
106.265 89.723
106.67 107.964
107.075 134.806
107.48 72.214
107.885 188.717
108.29 65.674
108.695 73.888
109.1 79.785
109.505 105.979
109.91 86.905
110.315 95.308
110.715 101.881
111.12 96.988
111.525 77.198
111.93 106.169
112.335 90.333
112.74 104.048
113.145 90.692
113.55 76.405
113.955 68.092
114.36 85.707
114.765 69.852
115.17 102.494
115.575 84.079
115.98 123.206
116.385 85.157
116.79 86.632
117.195 73.256
117.6 77.366
118.005 75.934
118.41 76.008
118.815 101.569
119.22 70.266
119.625 83.543
120.03 77.379
120.435 99.348
120.84 190.024
121.245 80.832
121.65 69.245
122.055 113.089
122.46 103.202
122.865 82.705
123.27 150.779
123.675 87.149
124.08 83.251
124.485 76.373
124.89 78.961
125.295 59.827
125.7 71.150
126.105 60.400
126.51 77.101
126.915 58.245
127.32 70.267
127.725 66.075
128.13 67.285
128.535 83.331
128.94 86.390
129.345 123.607
129.75 91.271
130.155 75.439
130.5 69.159

File: Lee-LiPSI4141-c_pallet_Q_XRD.xy
10.30000 3180.200
10.70500 2996.700
11.11000 2750.800
11.51500 2417.600
11.92000 2278.300
12.32500 2077.000
12.73000 2012.500
13.13500 2033.700
13.54000 1879.400
13.94500 1828.700
14.35000 1871.000
14.75500 1923.400
15.16000 2084.300
15.56500 1885.800
15.97000 2033.400
16.37500 2026.800
16.78000 2166.000
17.18500 2216.400
17.59000 2331.600
17.99500 2516.500
18.40000 2567.700
18.80500 2603.100
19.21000 2502.900
19.61500 2506.900
20.02000 2524.800
20.42500 2360.100
20.83000 2205.100
21.23500 2128.600
21.64000 1832.000
22.04500 1665.400
22.45000 1508.700
22.85500 1401.200
23.26000 1266.200
23.66500 1147.900
24.07000 1095.000
24.47500 1006.700
24.88000 2102.200
25.28500 939.100
25.69000 1013.800
26.09500 808.200
26.50000 778.900
26.90500 745.400
27.31000 727.800
27.71500 714.100
28.12000 862.300
28.52500 601.800
28.93000 544.200
29.33500 703.100
29.74000 737.600
30.14500 642.700
30.54500 576.700
30.95000 482.900
31.35500 478.600
31.76000 502.100
32.16500 657.300
32.57000 515.700
32.97500 473.900
33.38000 467.600
33.78500 537.500
34.19000 419.200
34.59500 321.900
35.00000 330.200
35.40500 345.500
35.81000 326.600
36.21500 294.300
36.62000 264.600
37.02500 335.300
37.43000 214.600
37.83500 228.100
38.24000 220.200
38.64500 2651.400
39.05000 202.100
39.45500 196.200
39.86000 276.300
40.26500 169.300
40.67000 154.700
41.07500 180.900
41.48000 260.900
41.88500 146.300
42.29000 134.700
42.69500 298.100
43.10000 149.300
43.50500 120.600
43.91000 144.800
44.31500 274.000
44.72000 110.500
45.12500 117.000
45.53000 546.900
45.93500 122.800
46.34000 89.400
46.74500 162.100
47.15000 123.200
47.55500 147.500
47.96000 99.400
48.36500 111.900
48.77000 135.800
49.17500 101.500
49.58000 702.400
49.98500 100.400
50.39000 128.800
50.79000 102.600
51.19500 256.100
51.60000 120.200
52.00500 95.700
52.41000 150.400
52.81500 100.500
53.22000 137.200
53.62500 108.800
54.03000 111.700
54.43500 1075.900
54.84000 81.100
55.24500 87.300
55.65000 311.600
56.05500 113.100
56.46000 110.900
56.86500 92.500
57.27000 104.600
57.67500 258.900
58.08000 159.100
58.48500 93.000
58.89000 127.600
59.29500 90.700
59.70000 86.300
60.10500 96.400
60.51000 90.200
60.91500 169.200
61.32000 103.800
61.72500 95.400
62.13000 152.300
62.53500 95.600
62.94000 103.000
63.34500 1670.900
63.75000 107.100
64.15500 100.000
64.56000 110.400
64.96500 659.400
65.37000 153.100
65.77500 80.700
66.18000 125.300
66.58500 98.800
66.99000 112.700
67.39500 67.300
67.80000 96.400
68.20500 100.100
68.61000 112.900
69.01500 109.300
69.42000 219.300
69.82500 88.400
70.23000 85.000
70.63000 83.100
71.03500 101.600
71.44000 92.600
71.84500 109.500
72.25000 145.200
72.65500 114.800
73.06000 155.600
73.46500 808.800
73.87000 152.900
74.27500 96.400
74.68000 105.700
75.08500 124.100
75.49000 124.300
75.89500 105.500
76.30000 83.600
76.70500 83.900
77.11000 88.900
77.51500 81.500
77.92000 89.600
78.32500 81.000
78.73000 75.300
79.13500 73.900
79.54000 123.700
79.94500 123.900
80.35000 98.100
80.75500 106.900
81.16000 95.500
81.56500 96.100
81.97000 83.400
82.37500 165.800
82.78000 105.700
83.18500 124.800
83.59000 86.300
83.99500 97.200
84.40000 98.400
84.80500 105.300
85.21000 109.500
85.61500 89.800
86.02000 103.300
86.42500 86.100
86.83000 75.600
87.23500 111.700
87.64000 315.400
88.04500 161.700
88.45000 133.400
88.85500 105.000
89.26000 72.100
89.66500 85.400
90.07000 105.600
90.47500 82.100
90.87500 92.800
91.28000 100.500
91.68500 86.600
92.09000 89.700
92.49500 69.300
92.90000 86.000
93.30500 84.500
93.71000 132.900
94.11500 76.000
94.52000 75.500
94.92500 83.300
95.33000 84.700
95.73500 368.900
96.14000 107.500
96.54500 264.300
96.95000 148.200
97.35500 80.800
97.76000 109.600
98.16500 83.700
98.57000 129.100
98.97500 88.500
99.38000 98.300
99.78500 190.900
100.19 82.200
100.595 84.100
101 71.000
101.405 86.300
101.81 72.900
102.215 76.800
102.62 101.100
103.025 83.900
103.43 76.900
103.835 83.400
104.24 77.200
104.645 80.000
105.05 87.500
105.455 219.800
105.86 81.100
106.265 89.800
106.67 108.500
107.075 134.300
107.48 72.400
107.885 188.500
108.29 65.500
108.695 74.100
109.1 79.900
109.505 106.200
109.91 87.100
110.315 95.000
110.715 102.200
111.12 96.900
111.525 77.300
111.93 106.100
112.335 90.400
112.74 104.000
113.145 90.600
113.55 76.600
113.955 68.400
114.36 85.700
114.765 69.600
115.17 102.800
115.575 84.100
115.98 123.400
116.385 85.500
116.79 86.500
117.195 73.200
117.6 77.100
118.005 76.200
118.41 76.100
118.815 101.800
119.22 70.400
119.625 83.700
120.03 77.700
120.435 99.800
120.84 189.800
121.245 80.500
121.65 69.100
122.055 112.800
122.46 102.900
122.865 82.500
123.27 150.300
123.675 87.500
124.08 83.500
124.485 76.400
124.89 78.900
125.295 60.000
125.7 71.100
126.105 60.300
126.51 77.300
126.915 58.300
127.32 70.100
127.725 66.400
128.13 67.300
128.535 83.000
128.94 86.100
129.345 124.000
129.75 91.600
130.155 75.300
130.5 68.900

File: Lee-LSPS101212-c(6E)-600C_outP_xB_XRD.xy
10.00000 4850.400
10.41000 4274.200
10.82000 3932.300
11.23000 3530.000
11.64000 3187.700
12.05000 3281.100
12.46000 2922.400
12.87000 2745.000
13.28000 2592.500
13.69000 2598.000
14.10000 2492.600
14.51000 2620.500
14.92000 2607.600
15.33000 2692.600
15.74000 2719.100
16.15000 2933.400
16.56000 3088.700
16.97000 3216.300
17.38000 3253.400
17.79000 3443.200
18.20000 3609.500
18.61000 3615.800
19.02000 3728.800
19.43000 3776.100
19.84000 3730.300
20.25000 3627.200
20.66000 3214.900
21.07000 2953.500
21.48000 2774.100
21.89000 2617.900
22.30000 2305.500
22.71000 2177.600
23.12000 2007.400
23.53000 1744.700
23.94000 1809.000
24.35000 1523.100
24.76000 2055.200
25.17000 1367.400
25.58000 1289.100
25.99000 1246.200
26.40000 1144.000
26.81000 6432.600
27.22000 1150.900
27.63000 996.400
28.04000 1065.700
28.45000 990.700
28.86000 961.100
29.27000 3534.100
29.68000 913.800
30.09000 871.900
30.50000 851.200
30.91000 801.600
31.32000 839.600
31.73000 792.900
32.14000 806.800
32.55000 1402.000
32.96000 742.100
33.37000 764.200
33.78000 708.900
34.19000 639.400
34.60000 610.100
35.01000 669.700
35.42000 1312.000
35.83000 618.400
36.24000 586.800
36.65000 558.900
37.06000 476.700
37.47000 1452.600
37.88000 598.100
38.29000 379.100
38.70000 428.200
39.11000 375.400
39.52000 343.600
39.93000 397.200
40.34000 311.700
40.75000 696.700
41.16000 336.100
41.57000 381.700
41.98000 645.500
42.39000 414.100
42.80000 289.000
43.21000 273.400
43.62000 259.500
44.03000 337.900
44.44000 226.100
44.85000 249.100
45.26000 441.100
45.67000 204.200
46.08000 262.400
46.49000 275.100
46.90000 338.000
47.31000 528.700
47.72000 261.400
48.13000 247.500
48.54000 213.400
48.95000 323.300
49.36000 201.300
49.77000 208.700
50.18000 185.400
50.59000 215.300
51.00000 180.600
51.41000 386.600
51.82000 402.300
52.23000 1421.000
52.64000 201.500
53.05000 367.900
53.46000 404.100
53.87000 184.400
54.28000 217.000
54.69000 377.400
55.10000 205.900
55.51000 465.900
55.92000 195.000
56.33000 187.900
56.74000 174.500
57.15000 276.700
57.56000 248.800
57.97000 257.300
58.38000 181.200
58.79000 827.100
59.20000 195.800
59.61000 186.900
60.02000 765.500
60.43000 781.400
60.84000 186.500
61.25000 202.500
61.66000 151.600
62.07000 323.200
62.48000 366.200
62.89000 220.300
63.30000 173.500
63.71000 187.600
64.12000 368.400
64.53000 247.900
64.94000 376.500
65.35000 187.200
65.76000 155.600
66.17000 156.200
66.58000 155.000
66.99000 192.100
67.40000 139.000
67.81000 346.400
68.22000 226.800
68.63000 155.900
69.04000 156.700
69.45000 184.300
69.86000 229.200
70.27000 170.500
70.68000 739.500
71.09000 160.800
71.50000 190.600
71.91000 312.700
72.32000 209.000
72.73000 138.500
73.14000 179.200
73.55000 294.300
73.96000 160.000
74.37000 287.800
74.78000 184.100
75.19000 201.600
75.60000 249.700
76.01000 159.100
76.42000 194.800
76.83000 178.800
77.24000 271.200
77.65000 197.800
78.06000 242.700
78.47000 167.300
78.88000 242.600
79.29000 254.300
79.70000 349.500
80.11000 195.100
80.52000 175.200
80.93000 203.300
81.34000 172.000
81.75000 202.900
82.16000 168.600
82.57000 218.800
82.98000 213.100
83.39000 244.000
83.80000 191.600
84.21000 199.300
84.62000 176.400
85.03000 164.300
85.44000 209.800
85.85000 170.000
86.26000 188.900
86.67000 282.000
87.08000 173.500
87.49000 196.500
87.90000 283.000
88.31000 192.800
88.72000 228.000
89.13000 235.500
89.54000 202.200
89.95000 299.900
90.36000 173.000
90.77000 188.600
91.18000 173.800
91.59000 192.100
92.00000 187.000
92.41000 299.600
92.82000 210.600
93.23000 166.700
93.64000 254.000
94.05000 190.700
94.46000 183.900
94.87000 181.800
95.28000 267.500
95.69000 174.000
96.10000 186.200
96.51000 168.500
96.92000 241.700
97.33000 222.600
97.74000 246.200
98.15000 179.200
98.56000 166.200
98.97000 194.800
99.38000 209.000
99.79000 186.200
100.2 149.500
100.61 236.300
101.02 199.500
101.43 213.100
101.84 165.800
102.25 160.500
102.66 182.000
103.07 155.600
103.48 208.800
103.89 181.000
104.3 228.400
104.71 205.900
105.12 197.600
105.53 156.300
105.94 212.300
106.35 221.600
106.76 184.400
107.17 216.200
107.58 183.500
107.99 183.300
108.4 215.100
108.81 268.500
109.22 172.900
109.63 165.700
110.04 147.200
110.45 154.600
110.86 196.300
111.27 141.400
111.68 181.800
112.09 225.500
112.5 165.000
112.91 162.700
113.32 179.100
113.73 192.300
114.14 172.500
114.55 197.000
114.96 180.500
115.37 154.300
115.78 171.300
116.19 233.400
116.6 190.400
117.01 171.100
117.42 193.600
117.83 189.200
118.24 148.400
118.65 149.000
119.06 173.000
119.47 165.000
119.88 154.800
120.29 206.200
120.7 203.500
121.11 182.700
121.52 136.900
121.93 162.100
122.34 159.800
122.75 182.700
123.16 162.500
123.57 143.800
123.98 172.900
124.39 176.500
124.8 136.200
125.21 155.900
125.62 135.200
126.03 208.600
126.44 174.100
126.85 162.700
127.26 157.000
127.67 151.100
128.08 138.800
128.49 171.600
128.9 186.600
129.31 162.600
129.72 141.300
130.13 163.700
130.54 157.100
130.95 198.400
131 159.600