Folder: Materials_Characterization_Protocol/Data/Materials_HUB_Synchrotron_XRD (part 4)

File: MQ135_XRD.xy
10.00000 2708.900
10.42000 2523.500
10.84000 2339.300
11.26000 1992.000
11.68000 1897.400
12.10000 1733.700
12.52000 1552.900
12.94000 2375.500
13.36000 1545.600
13.78000 1477.600
14.20000 1382.700
14.62000 1438.800
15.04000 1487.600
15.46000 2417.600
15.88000 1648.300
16.30000 1611.500
16.72000 1629.500
17.14000 1746.600
17.56000 1905.900
17.98000 2007.000
18.40000 1970.900
18.82000 2550.400
19.24000 2025.300
19.66000 2194.400
20.08000 1907.900
20.50000 1729.600
20.92000 1678.300
21.34000 1523.300
21.76000 1396.600
22.18000 1256.700
22.60000 1133.600
23.02000 1118.300
23.44000 1029.700
23.86000 1940.300
24.28000 949.300
24.70000 756.300
25.12000 670.200
25.54000 833.400
25.96000 1124.100
26.38000 635.300
26.80000 754.800
27.22000 779.400
27.64000 584.900
28.06000 540.000
28.48000 560.500
28.90000 501.800
29.32000 624.800
29.74000 2367.800
30.16000 1142.000
30.58000 682.200
31.00000 861.300
31.42000 574.900
31.84000 517.600
32.26000 1058.300
32.68000 631.800
33.10000 600.200
33.52000 438.600
33.94000 424.100
34.36000 413.900
34.78000 413.700
35.20000 419.800
35.62000 356.000
36.04000 405.200
36.46000 397.600
36.88000 413.800
37.30000 396.200
37.72000 397.400
38.14000 321.900
38.56000 352.500
38.98000 266.300
39.40000 312.600
39.82000 329.200
40.24000 232.600
40.66000 254.100
41.08000 216.000
41.50000 202.200
41.92000 268.200
42.34000 209.200
42.76000 185.400
43.18000 244.800
43.60000 217.200
44.02000 299.400
44.44000 211.100
44.86000 217.500
45.28000 197.500
45.70000 189.300
46.12000 182.900
46.54000 150.400
46.96000 160.400
47.38000 158.200
47.80000 148.300
48.22000 326.500
48.64000 364.300
49.06000 225.900
49.48000 235.700
49.90000 287.400
50.32000 146.100
50.74000 196.400
51.16000 232.000
51.58000 218.700
52.00000 308.000
52.42000 235.300
52.84000 187.400
53.26000 280.200
53.68000 322.000
54.10000 527.500
54.52000 237.700
54.94000 194.800
55.36000 164.700
55.78000 162.600
56.20000 183.500
56.62000 200.700
57.04000 249.300
57.46000 161.300
57.88000 187.800
58.30000 160.400
58.72000 177.600
59.14000 247.400
59.56000 266.300
59.98000 233.300
60.40000 178.000
60.82000 173.500
61.24000 177.800
61.66000 154.800
62.08000 187.900
62.50000 198.900
62.92000 180.900
63.34000 185.600
63.76000 191.200
64.18000 192.600
64.60000 164.300
65.02000 187.300
65.44000 167.700
65.86000 144.700
66.28000 155.700
66.70000 135.700
67.12000 120.300
67.54000 152.500
67.96000 125.800
68.38000 118.700
68.80000 157.300
69.22000 164.500
69.64000 145.400
70.06000 123.000
70.48000 123.100
70.90000 125.900
71.32000 117.700
71.74000 103.300
72.16000 98.400
72.58000 103.100
73.00000 95.100
73.42000 135.200
73.84000 136.300
74.26000 108.600
74.68000 154.200
75.10000 145.000
75.52000 123.900
75.94000 102.500
76.36000 123.700
76.78000 116.600
77.20000 102.200
77.62000 103.600
78.04000 118.600
78.46000 119.000
78.88000 125.300
79.30000 123.700
79.72000 138.900
80.14000 114.800
80.56000 109.300
80.98000 121.700
81.40000 118.100
81.82000 114.700
82.24000 109.800
82.66000 109.100
83.08000 99.700
83.50000 112.700
83.92000 94.300
84.34000 112.000
84.76000 101.300
85.18000 115.900
85.60000 129.600
86.02000 137.000
86.44000 143.200
86.86000 122.100
87.28000 140.300
87.70000 110.500
88.12000 109.900
88.54000 103.700
88.96000 121.100
89.38000 115.100
89.80000 136.500
90.22000 112.600
90.64000 121.000
91.06000 106.600
91.48000 97.200
91.90000 112.600
92.32000 103.000
92.74000 113.600
93.16000 110.100
93.58000 107.800
94.00000 106.000
94.42000 114.500
94.84000 102.300
95.26000 109.800
95.68000 104.900
96.10000 107.400
96.52000 115.500
96.94000 104.100
97.36000 106.900
97.78000 92.600
98.20000 101.400
98.62000 124.100
99.04000 123.700
99.46000 128.900
99.88000 89.500
100.3 100.800
100.72 100.000
101.14 113.700
101.56 129.000
101.98 136.200
102.4 117.200
102.82 126.000
103.24 121.800
103.66 105.700
104.08 103.800
104.5 96.300
104.92 113.200
105.34 132.900
105.76 107.700
106.18 100.200
106.6 93.100
107.02 105.200
107.44 103.500
107.86 101.800
108.28 102.700
108.7 111.200
109.12 106.700
109.54 83.300
109.96 103.200
110.38 87.000
110.8 102.400
111.22 103.000
111.64 116.100
112.06 98.000
112.48 112.600
112.9 115.500
113.32 96.000
113.74 94.900
114.16 107.800
114.58 106.600
115 75.400
115.42 106.600
115.84 91.600
116.26 104.900
116.68 95.800
117.1 91.900
117.52 104.100
117.94 100.600
118.36 107.400
118.78 118.500
119.2 93.400
119.62 92.200
120.04 87.200
120.46 107.800
120.88 99.200
121.3 95.000
121.72 101.700
122.14 97.100
122.56 103.700
122.98 93.100
123.4 99.600
123.82 96.500
124.24 96.400
124.66 107.100
125.08 101.800
125.5 92.400
125.92 99.100
126.34 107.900
126.76 109.800
127.18 93.000
127.6 105.900
128.02 106.200
128.44 96.600
128.86 99.700
129.28 105.200
129.7 89.300
130.12 106.300
130.54 96.300
130.96 93.300
131 101.100

File: Noh_Li3InCl6_400C_natural cooling_XRD.xy
10.00000 1934.800
10.40500 1764.700
10.81000 1526.300
11.21500 1390.400
11.62000 1448.200
12.02500 1162.300
12.43000 1226.100
12.83500 1088.600
13.24000 1060.100
13.64500 969.700
14.05000 1089.100
14.45500 1026.200
14.86000 1307.500
15.26500 1105.400
15.67000 1139.600
16.07500 1415.400
16.48000 1291.400
16.88500 1218.700
17.29000 1338.900
17.69500 1424.800
18.10000 1492.400
18.50500 1495.400
18.91000 1539.700
19.31500 1454.000
19.72000 1482.100
20.12500 1422.600
20.53000 1371.500
20.93500 1201.800
21.34000 1199.300
21.74500 1142.700
22.15000 912.400
22.55500 879.500
22.96000 767.100
23.36500 699.900
23.77000 649.500
24.17500 639.800
24.58000 583.500
24.98500 542.200
25.39000 508.500
25.79500 569.800
26.20000 427.100
26.60500 457.600
27.01000 399.300
27.41500 438.600
27.82000 386.200
28.22500 411.500
28.63000 397.400
29.03500 359.900
29.44000 373.300
29.84500 707.900
30.25000 318.600
30.65500 263.000
31.06000 304.000
31.46500 296.400
31.87000 272.800
32.27500 295.600
32.68000 344.500
33.08500 274.800
33.49000 264.700
33.89500 289.300
34.30000 459.300
34.70500 353.900
35.11000 238.300
35.51500 233.600
35.92000 218.000
36.32500 205.200
36.73000 164.100
37.13500 200.400
37.54000 186.200
37.94500 151.200
38.35000 150.500
38.75500 263.700
39.16000 133.500
39.56500 138.900
39.97000 95.500
40.37500 100.800
40.78000 103.600
41.18500 107.800
41.59000 88.900
41.99500 80.500
42.40000 101.100
42.80500 82.600
43.21000 161.100
43.61500 193.100
44.02000 88.100
44.42500 101.000
44.83000 79.300
45.23500 227.700
45.64000 91.300
46.04500 119.100
46.45000 69.700
46.85500 74.300
47.26000 72.500
47.66500 73.100
48.07000 288.400
48.47500 297.000
48.88000 83.600
49.28500 142.800
49.69000 955.800
50.09500 88.900
50.50000 164.800
50.90500 72.200
51.31000 66.500
51.71500 97.700
52.12000 80.100
52.52500 86.200
52.93000 48.800
53.33500 85.900
53.74000 77.700
54.14500 68.700
54.55000 61.600
54.95500 65.700
55.36000 53.100
55.76500 44.200
56.17000 61.500
56.57500 65.700
56.98000 72.300
57.38500 45.900
57.79000 56.900
58.19500 64.400
58.60000 72.100
59.00500 84.900
59.41000 60.400
59.81500 49.500
60.22000 54.500
60.62500 164.100
61.03000 73.600
61.43500 104.400
61.84000 107.900
62.24500 87.000
62.65000 56.800
63.05500 46.600
63.46000 66.900
63.86500 161.000
64.27000 73.800
64.67500 102.200
65.08000 58.000
65.48500 48.200
65.89000 49.900
66.29500 94.000
66.70000 54.900
67.10500 46.100
67.51000 42.800
67.91500 60.800
68.32000 52.300
68.72500 90.900
69.13000 54.900
69.53500 50.100
69.94000 64.400
70.34500 48.700
70.75000 41.500
71.15500 44.200
71.56000 56.100
71.96500 52.300
72.37000 213.500
72.77500 402.300
73.18000 75.600
73.58500 66.000
73.99000 52.200
74.39500 55.400
74.80000 75.100
75.20500 51.600
75.61000 70.600
76.01500 104.700
76.42000 47.800
76.82500 70.900
77.23000 43.000
77.63500 39.500
78.04000 67.300
78.44500 81.300
78.85000 57.000
79.25500 56.400
79.66000 78.400
80.06500 144.200
80.47000 61.900
80.87500 58.500
81.28000 64.900
81.68500 53.400
82.09000 60.300
82.49500 122.400
82.90000 556.900
83.30500 194.900
83.71000 72.200
84.11500 55.200
84.52000 71.200
84.92500 84.700
85.33000 78.300
85.73500 60.600
86.14000 45.600
86.54500 52.500
86.95000 73.800
87.35500 57.500
87.76000 51.800
88.16500 43.600
88.57000 72.700
88.97500 83.500
89.38000 56.000
89.78500 116.000
90.19000 55.500
90.59500 65.300
91.00000 46.200
91.40500 49.700
91.81000 66.200
92.21500 88.400
92.62000 90.700
93.02500 281.700
93.43000 262.500
93.83500 67.700
94.24000 65.400
94.64500 69.100
95.05000 59.500
95.45500 100.700
95.86000 59.800
96.26500 51.400
96.67000 62.200
97.07500 59.800
97.48000 53.700
97.88500 50.100
98.29000 52.700
98.69500 54.500
99.10000 40.400
99.50500 63.900
99.91000 80.200
100.315 118.000
100.72 69.600
101.125 50.900
101.53 35.800
101.935 51.500
102.34 64.200
102.745 72.700
103.15 50.600
103.555 58.200
103.96 49.300
104.365 50.100
104.77 52.000
105.175 95.300
105.58 69.900
105.985 43.600
106.39 54.900
106.795 47.900
107.2 60.100
107.605 52.700
108.01 40.700
108.415 40.200
108.82 63.600
109.225 71.500
109.63 79.000
110.035 57.700
110.44 50.200
110.845 47.700
111.25 48.600
111.655 51.100
112.06 41.800
112.465 51.800
112.87 77.800
113.275 73.300
113.68 104.900
114.085 82.300
114.49 50.700
114.895 62.100
115.3 61.400
115.705 63.200
116.11 69.900
116.515 95.400
116.92 81.600
117.325 73.900
117.73 64.400
118.135 52.900
118.54 61.900
118.945 44.400
119.35 56.100
119.755 61.700
120.16 55.800
120.565 46.500
120.97 59.800
121.375 62.600
121.78 67.600
122.185 63.900
122.59 53.000
122.995 57.300
123.4 41.300
123.805 69.900
124.21 73.800
124.615 80.300
125.02 176.000
125.425 91.900
125.83 110.800
126.235 90.800
126.64 62.700
127.045 58.200
127.45 63.700
127.855 61.100
128.26 34.500
128.665 55.500
129.07 56.800
129.475 48.500
129.88 58.300
130.285 59.600
130.69 55.300
131 66.900

File: Noh_LiYBr6_500C_natural cooling_XRD.xy
10.00000 1036.300
10.40500 820.700
10.81000 730.500
11.21500 735.200
11.62000 637.100
12.02500 563.200
12.43000 589.200
12.83500 507.000
13.24000 534.300
13.64500 521.600
14.05000 481.600
14.45500 521.000
14.86000 1911.800
15.26500 609.800
15.67000 576.800
16.07500 526.600
16.48000 593.500
16.88500 589.300
17.29000 703.800
17.69500 716.300
18.10000 627.400
18.50500 746.400
18.91000 674.100
19.31500 712.100
19.72000 640.400
20.12500 686.900
20.53000 638.800
20.93500 552.600
21.34000 567.300
21.74500 456.700
22.15000 470.200
22.55500 453.300
22.96000 397.200
23.36500 390.500
23.77000 404.400
24.17500 320.900
24.58000 286.000
24.98500 278.900
25.39000 301.900
25.79500 232.800
26.20000 314.000
26.60500 237.300
27.01000 222.400
27.41500 654.800
27.82000 418.000
28.22500 278.800
28.63000 198.000
29.03500 205.800
29.44000 194.700
29.84500 178.500
30.25000 226.700
30.65500 177.400
31.06000 178.100
31.46500 205.000
31.87000 6135.400
32.27500 216.900
32.68000 266.200
33.08500 240.800
33.49000 123.700
33.89500 129.400
34.30000 154.100
34.70500 145.500
35.11000 158.300
35.51500 113.500
35.92000 272.100
36.32500 127.700
36.73000 118.700
37.13500 99.000
37.54000 97.900
37.94500 99.000
38.35000 73.200
38.75500 74.500
39.16000 56.400
39.56500 72.900
39.97000 86.200
40.37500 105.600
40.78000 80.700
41.18500 79.200
41.59000 68.800
41.99500 271.900
42.40000 175.800
42.80500 44.500
43.21000 62.000
43.61500 44.500
44.02000 53.000
44.42500 79.800
44.83000 77.600
45.23500 77.000
45.64000 1933.500
46.04500 288.900
46.45000 70.700
46.85500 140.100
47.26000 65.400
47.66500 56.100
48.07000 46.500
48.47500 49.400
48.88000 41.800
49.28500 82.000
49.69000 97.700
50.09500 52.600
50.50000 47.000
50.90500 45.400
51.31000 42.500
51.71500 51.100
52.12000 56.700
52.52500 55.800
52.93000 38.800
53.33500 88.900
53.74000 66.900
54.14500 971.800
54.55000 1223.300
54.95500 60.200
55.36000 59.500
55.76500 113.400
56.17000 83.100
56.57500 105.400
56.98000 78.400
57.38500 143.500
57.79000 50.800
58.19500 70.200
58.60000 39.700
59.00500 79.600
59.41000 70.300
59.81500 46.800
60.22000 55.200
60.62500 47.500
61.03000 47.000
61.43500 47.200
61.84000 36.500
62.24500 58.600
62.65000 50.800
63.05500 62.000
63.46000 49.000
63.86500 46.400
64.27000 40.400
64.67500 44.100
65.08000 45.300
65.48500 51.200
65.89000 65.300
66.29500 44.300
66.70000 287.400
67.10500 55.900
67.51000 46.200
67.91500 48.000
68.32000 41.100
68.72500 56.700
69.13000 60.100
69.53500 47.000
69.94000 52.000
70.34500 55.100
70.75000 51.900
71.15500 51.800
71.56000 58.400
71.96500 62.400
72.37000 61.700
72.77500 78.200
73.18000 81.700
73.58500 84.200
73.99000 90.400
74.39500 51.200
74.80000 67.600
75.20500 80.000
75.61000 537.600
76.01500 602.500
76.42000 81.600
76.82500 66.400
77.23000 65.800
77.63500 62.900
78.04000 80.000
78.44500 57.700
78.85000 73.600
79.25500 65.800
79.66000 62.500
80.06500 72.000
80.47000 48.900
80.87500 45.900
81.28000 64.400
81.68500 60.500
82.09000 57.600
82.49500 57.300
82.90000 65.800
83.30500 57.400
83.71000 71.600
84.11500 106.500
84.52000 394.400
84.92500 55.800
85.33000 476.500
85.73500 68.100
86.14000 74.600
86.54500 58.900
86.95000 59.100
87.35500 60.300
87.76000 55.900
88.16500 50.300
88.57000 54.800
88.97500 52.500
89.38000 56.700
89.78500 35.700
90.19000 47.700
90.59500 50.400
91.00000 245.500
91.40500 66.100
91.81000 60.300
92.21500 45.600
92.62000 46.700
93.02500 52.300
93.43000 53.400
93.83500 46.800
94.24000 40.400
94.64500 59.300
95.05000 91.400
95.45500 51.800
95.86000 54.800
96.26500 33.900
96.67000 40.500
97.07500 38.500
97.48000 57.100
97.88500 46.100
98.29000 41.800
98.69500 45.900
99.10000 41.300
99.50500 42.400
99.91000 36.200
100.315 49.900
100.72 52.400
101.125 54.900
101.53 206.600
101.935 67.600
102.34 58.900
102.745 94.300
103.15 70.800
103.555 46.200
103.96 48.500
104.365 53.700
104.77 72.900
105.175 63.000
105.58 51.600
105.985 41.800
106.39 63.500
106.795 57.100
107.2 49.200
107.605 66.000
108.01 70.500
108.415 119.800
108.82 78.800
109.225 75.600
109.63 105.300
110.035 61.800
110.44 97.100
110.845 136.500
111.25 192.600
111.655 61.600
112.06 99.100
112.465 58.800
112.87 49.500
113.275 41.800
113.68 62.300
114.085 39.100
114.49 49.200
114.895 45.400
115.3 57.000
115.705 51.000
116.11 57.700
116.515 59.200
116.92 44.600
117.325 51.300
117.73 59.900
118.135 64.300
118.54 42.100
118.945 53.400
119.35 50.000
119.755 64.500
120.16 77.900
120.565 152.100
120.97 90.400
121.375 175.700
121.78 58.000
122.185 54.000
122.59 70.300
122.995 55.800
123.4 46.700
123.805 49.100
124.21 60.800
124.615 43.800
125.02 58.000
125.425 54.200
125.83 53.400
126.235 55.100
126.64 53.400
127.045 54.600
127.45 47.900
127.855 49.400
128.26 94.600
128.665 57.200
129.07 49.100
129.475 54.700
129.88 49.000
130.285 92.100
130.69 63.000
131 104.300

File: shinj_1_1_XRD.xy
10.00000 5471.300
10.42000 4553.200
10.84000 4089.800
11.26000 3916.500
11.68000 3515.400
12.10000 3168.400
12.52000 2900.200
12.94000 4218.800
13.36000 2943.700
13.78000 2643.400
14.20000 2655.500
14.62000 2854.300
15.04000 2785.200
15.46000 3444.500
15.88000 3012.100
16.30000 2997.900
16.72000 3209.000
17.14000 3292.600
17.56000 3615.700
17.98000 4003.800
18.40000 4676.300
18.82000 4044.700
19.24000 3840.000
19.66000 4157.000
20.08000 3707.400
20.50000 3430.000
20.92000 3200.300
21.34000 2937.800
21.76000 2772.800
22.18000 2422.600
22.60000 2188.600
23.02000 2023.500
23.44000 2185.700
23.86000 3935.100
24.28000 2006.200
24.70000 1478.900
25.12000 1416.300
25.54000 1584.700
25.96000 2311.500
26.38000 1337.800
26.80000 1291.900
27.22000 1103.000
27.64000 1142.200
28.06000 1052.400
28.48000 1053.000
28.90000 1039.500
29.32000 1154.800
29.74000 5791.400
30.16000 2654.500
30.58000 1437.000
31.00000 1978.800
31.42000 1289.300
31.84000 1004.900
32.26000 1356.700
32.68000 1017.100
33.10000 1190.500
33.52000 888.500
33.94000 772.400
34.36000 767.000
34.78000 872.900
35.20000 758.600
35.62000 676.300
36.04000 732.600
36.46000 766.400
36.88000 715.300
37.30000 755.100
37.72000 740.800
38.14000 662.400
38.56000 556.300
38.98000 474.400
39.40000 516.700
39.82000 579.500
40.24000 477.100
40.66000 420.600
41.08000 369.000
41.50000 359.700
41.92000 431.900
42.34000 383.500
42.76000 423.100
43.18000 531.600
43.60000 444.300
44.02000 559.700
44.44000 476.400
44.86000 383.300
45.28000 385.600
45.70000 470.100
46.12000 367.400
46.54000 282.200
46.96000 359.200
47.38000 314.200
47.80000 338.300
48.22000 523.400
48.64000 701.600
49.06000 584.500
49.48000 435.800
49.90000 406.300
50.32000 327.000
50.74000 342.200
51.16000 404.400
51.58000 441.100
52.00000 452.100
52.42000 466.500
52.84000 492.500
53.26000 583.600
53.68000 683.800
54.10000 1077.600
54.52000 510.600
54.94000 379.600
55.36000 363.400
55.78000 360.100
56.20000 397.800
56.62000 383.700
57.04000 466.100
57.46000 348.000
57.88000 409.700
58.30000 342.700
58.72000 347.300
59.14000 475.500
59.56000 467.800
59.98000 448.900
60.40000 459.000
60.82000 429.500
61.24000 396.000
61.66000 334.800
62.08000 381.300
62.50000 361.600
62.92000 365.700
63.34000 382.300
63.76000 427.400
64.18000 383.400
64.60000 338.900
65.02000 361.500
65.44000 380.300
65.86000 339.100
66.28000 334.300
66.70000 273.300
67.12000 254.000
67.54000 258.300
67.96000 269.300
68.38000 275.000
68.80000 353.200
69.22000 353.200
69.64000 291.700
70.06000 256.800
70.48000 262.900
70.90000 299.100
71.32000 272.400
71.74000 282.400
72.16000 254.000
72.58000 266.300
73.00000 231.800
73.42000 274.300
73.84000 297.700
74.26000 285.300
74.68000 321.200
75.10000 265.500
75.52000 260.100
75.94000 241.600
76.36000 249.100
76.78000 236.400
77.20000 231.400
77.62000 232.200
78.04000 238.300
78.46000 243.300
78.88000 267.700
79.30000 247.600
79.72000 238.600
80.14000 237.800
80.56000 274.300
80.98000 231.900
81.40000 253.900
81.82000 253.500
82.24000 220.500
82.66000 202.400
83.08000 215.900
83.50000 232.100
83.92000 244.700
84.34000 232.800
84.76000 281.500
85.18000 288.500
85.60000 288.000
86.02000 300.300
86.44000 253.900
86.86000 310.200
87.28000 276.900
87.70000 226.500
88.12000 237.500
88.54000 249.600
88.96000 256.200
89.38000 261.500
89.80000 260.000
90.22000 274.200
90.64000 274.800
91.06000 263.000
91.48000 255.200
91.90000 257.200
92.32000 233.400
92.74000 267.500
93.16000 268.200
93.58000 285.700
94.00000 251.000
94.42000 237.200
94.84000 247.200
95.26000 234.800
95.68000 262.800
96.10000 255.900
96.52000 261.200
96.94000 250.600
97.36000 263.300
97.78000 258.000
98.20000 257.000
98.62000 257.700
99.04000 279.500
99.46000 251.400
99.88000 228.800
100.3 239.300
100.72 250.900
101.14 289.700
101.56 320.600
101.98 240.000
102.4 258.800
102.82 305.200
103.24 320.800
103.66 273.400
104.08 241.400
104.5 245.200
104.92 234.200
105.34 237.800
105.76 240.000
106.18 272.900
106.6 264.400
107.02 250.700
107.44 270.100
107.86 246.300
108.28 237.500
108.7 248.700
109.12 255.300
109.54 268.800
109.96 239.900
110.38 238.800
110.8 249.600
111.22 264.900
111.64 258.500
112.06 291.300
112.48 263.000
112.9 294.500
113.32 264.000
113.74 239.000
114.16 244.400
114.58 239.100
115 280.000
115.42 238.400
115.84 250.600
116.26 253.100
116.68 243.400
117.1 219.100
117.52 226.900
117.94 237.800
118.36 220.700
118.78 228.400
119.2 236.200
119.62 201.500
120.04 245.300
120.46 242.400
120.88 216.800
121.3 224.300
121.72 240.300
122.14 232.700
122.56 217.900
122.98 227.400
123.4 250.900
123.82 237.200
124.24 220.900
124.66 214.700
125.08 223.800
125.5 246.600
125.92 221.800
126.34 243.200
126.76 257.200
127.18 237.100
127.6 273.100
128.02 236.000
128.44 245.600
128.86 230.200
129.28 241.400
129.7 201.500
130.12 225.800
130.54 232.000
130.96 266.200
131 244.400

File: SJY_165_XRD.xy
10.00000 2633.200
10.42000 2522.200
10.84000 2242.000
11.26000 1970.400
11.68000 1879.700
12.10000 1686.000
12.52000 1544.300
12.94000 1975.300
13.36000 1463.000
13.78000 1447.900
14.20000 1424.900
14.62000 1465.700
15.04000 1502.100
15.46000 1674.800
15.88000 1577.200
16.30000 1641.400
16.72000 1674.700
17.14000 1605.300
17.56000 2089.900
17.98000 2089.100
18.40000 2600.700
18.82000 2099.800
19.24000 2017.200
19.66000 2113.100
20.08000 2061.100
20.50000 1737.800
20.92000 1595.600
21.34000 1582.300
21.76000 1458.500
22.18000 1314.500
22.60000 1188.800
23.02000 1060.300
23.44000 1132.600
23.86000 1702.600
24.28000 1088.300
24.70000 786.900
25.12000 714.300
25.54000 757.000
25.96000 1127.600
26.38000 770.500
26.80000 678.300
27.22000 626.100
27.64000 694.000
28.06000 560.900
28.48000 572.300
28.90000 580.700
29.32000 722.600
29.74000 1879.900
30.16000 1198.300
30.58000 719.800
31.00000 824.000
31.42000 738.500
31.84000 497.900
32.26000 610.500
32.68000 540.000
33.10000 541.900
33.52000 480.700
33.94000 434.300
34.36000 436.300
34.78000 449.100
35.20000 384.400
35.62000 414.100
36.04000 375.800
36.46000 448.100
36.88000 391.500
37.30000 404.100
37.72000 420.000
38.14000 371.000
38.56000 293.000
38.98000 346.700
39.40000 341.000
39.82000 305.600
40.24000 284.800
40.66000 278.900
41.08000 251.900
41.50000 246.900
41.92000 244.800
42.34000 253.200
42.76000 251.900
43.18000 250.100
43.60000 229.000
44.02000 242.500
44.44000 237.400
44.86000 251.600
45.28000 203.700
45.70000 254.600
46.12000 174.800
46.54000 200.500
46.96000 190.100
47.38000 168.500
47.80000 214.900
48.22000 270.600
48.64000 355.300
49.06000 313.000
49.48000 209.300
49.90000 213.800
50.32000 173.000
50.74000 194.800
51.16000 193.700
51.58000 206.300
52.00000 233.400
52.42000 232.800
52.84000 228.800
53.26000 266.600
53.68000 284.000
54.10000 379.700
54.52000 257.200
54.94000 201.600
55.36000 194.600
55.78000 202.700
56.20000 179.100
56.62000 214.400
57.04000 240.000
57.46000 189.100
57.88000 173.800
58.30000 174.100
58.72000 191.600
59.14000 211.300
59.56000 204.300
59.98000 177.400
60.40000 195.200
60.82000 192.300
61.24000 175.100
61.66000 182.100
62.08000 163.500
62.50000 184.200
62.92000 177.000
63.34000 193.600
63.76000 157.700
64.18000 198.200
64.60000 171.600
65.02000 162.000
65.44000 183.700
65.86000 154.600
66.28000 147.700
66.70000 166.200
67.12000 144.700
67.54000 132.600
67.96000 145.800
68.38000 155.300
68.80000 151.900
69.22000 159.500
69.64000 157.300
70.06000 135.200
70.48000 153.800
70.90000 122.900
71.32000 137.600
71.74000 123.800
72.16000 143.900
72.58000 127.500
73.00000 104.700
73.42000 125.800
73.84000 130.300
74.26000 134.200
74.68000 150.000
75.10000 133.800
75.52000 120.600
75.94000 113.100
76.36000 115.400
76.78000 123.800
77.20000 130.100
77.62000 106.700
78.04000 106.500
78.46000 132.600
78.88000 121.600
79.30000 122.800
79.72000 125.900
80.14000 110.200
80.56000 130.200
80.98000 96.800
81.40000 120.800
81.82000 102.500
82.24000 123.300
82.66000 143.900
83.08000 116.600
83.50000 119.800
83.92000 116.100
84.34000 119.900
84.76000 118.400
85.18000 114.600
85.60000 136.000
86.02000 161.600
86.44000 123.300
86.86000 135.800
87.28000 112.100
87.70000 124.300
88.12000 156.800
88.54000 133.600
88.96000 121.500
89.38000 120.900
89.80000 132.200
90.22000 119.800
90.64000 114.100
91.06000 118.100
91.48000 118.500
91.90000 127.300
92.32000 137.600
92.74000 125.700
93.16000 127.500
93.58000 118.600
94.00000 141.100
94.42000 138.700
94.84000 125.300
95.26000 119.700
95.68000 115.200
96.10000 113.100
96.52000 135.600
96.94000 125.100
97.36000 105.700
97.78000 119.600
98.20000 127.400
98.62000 107.900
99.04000 129.000
99.46000 125.100
99.88000 126.300
100.3 144.200
100.72 124.300
101.14 116.300
101.56 158.000
101.98 139.100
102.4 121.900
102.82 145.600
103.24 109.700
103.66 146.900
104.08 135.000
104.5 126.400
104.92 119.200
105.34 116.300
105.76 118.200
106.18 130.300
106.6 111.600
107.02 137.500
107.44 134.000
107.86 135.000
108.28 139.100
108.7 145.000
109.12 134.900
109.54 124.000
109.96 127.200
110.38 112.800
110.8 121.500
111.22 110.800
111.64 118.700
112.06 109.600
112.48 121.100
112.9 115.500
113.32 96.900
113.74 116.600
114.16 122.500
114.58 119.700
115 113.000
115.42 117.500
115.84 104.100
116.26 132.100
116.68 98.900
117.1 111.500
117.52 121.100
117.94 118.400
118.36 114.500
118.78 111.600
119.2 83.400
119.62 88.200
120.04 105.400
120.46 113.800
120.88 115.800
121.3 119.000
121.72 119.200
122.14 113.300
122.56 104.300
122.98 118.500
123.4 120.800
123.82 101.600
124.24 94.200
124.66 110.900
125.08 122.900
125.5 125.000
125.92 107.300
126.34 109.100
126.76 113.100
127.18 108.900
127.6 113.800
128.02 116.600
128.44 103.400
128.86 98.500
129.28 115.500
129.7 96.100
130.12 118.600
130.54 118.000
130.96 105.600
131 109.800