Folder: Materials_Characterization_Protocol/Data/Materials_HUB_Synchrotron_XRD (part 3)

File: Li67_450_12h_AQ_b5_OYJ_XRD.xy
10.50000 2219.500
10.91000 2133.200
11.32000 1982.100
11.73000 1817.100
12.14000 1548.900
12.55000 1614.500
12.96000 1511.300
13.37000 1431.300
13.78000 1387.900
14.19000 1438.700
14.60000 1327.300
15.01000 1371.000
15.42000 1431.200
15.83000 1413.700
16.24000 1531.700
16.65000 1579.700
17.06000 1768.600
17.47000 1669.700
17.88000 1751.600
18.29000 1842.100
18.70000 1904.400
19.11000 1953.300
19.52000 1975.000
19.93000 1785.200
20.34000 1782.200
20.75000 2303.900
21.16000 1545.000
21.57000 1388.600
21.98000 1212.800
22.39000 1140.800
22.80000 1036.900
23.21000 1013.100
23.62000 907.100
24.03000 936.700
24.44000 18264.800
24.85000 778.000
25.26000 741.500
25.67000 2043.500
26.08000 696.000
26.49000 564.600
26.90000 565.700
27.31000 570.900
27.72000 604.900
28.13000 603.200
28.54000 664.300
28.95000 586.600
29.36000 615.700
29.77000 963.200
30.18000 656.400
30.59000 419.000
31.00000 433.900
31.41000 735.300
31.82000 437.900
32.23000 423.300
32.64000 341.400
33.05000 363.700
33.46000 394.100
33.87000 378.700
34.28000 321.000
34.69000 376.900
35.10000 365.000
35.51000 323.000
35.92000 290.600
36.33000 399.500
36.74000 267.800
37.15000 271.200
37.56000 239.300
37.97000 288.400
38.38000 233.800
38.79000 262.600
39.20000 365.300
39.61000 218.900
40.02000 206.700
40.43000 190.400
40.84000 167.400
41.25000 194.700
41.66000 172.000
42.07000 208.000
42.48000 370.400
42.89000 1060.200
43.30000 197.600
43.71000 170.500
44.12000 135.400
44.53000 148.500
44.94000 183.900
45.35000 162.500
45.76000 1895.500
46.17000 168.500
46.58000 142.300
46.99000 146.100
47.40000 225.900
47.81000 131.800
48.22000 130.900
48.63000 122.400
49.04000 119.600
49.45000 148.000
49.86000 333.700
50.27000 384.000
50.68000 144.600
51.09000 130.000
51.50000 130.100
51.91000 127.200
52.32000 297.600
52.73000 227.100
53.14000 229.400
53.55000 137.500
53.96000 109.300
54.37000 123.400
54.78000 145.100
55.19000 135.000
55.60000 137.000
56.01000 142.300
56.42000 916.000
56.83000 116.400
57.24000 128.300
57.65000 106.600
58.06000 106.800
58.47000 118.300
58.88000 148.100
59.29000 215.700
59.70000 155.500
60.11000 106.600
60.52000 89.800
60.93000 108.700
61.34000 130.800
61.75000 128.700
62.16000 121.200
62.57000 113.700
62.98000 106.600
63.39000 113.600
63.80000 114.600
64.21000 120.300
64.62000 126.800
65.03000 141.100
65.44000 216.200
65.85000 127.200
66.26000 97.000
66.67000 102.100
67.08000 120.100
67.49000 129.700
67.90000 492.100
68.31000 162.500
68.72000 92.400
69.13000 123.400
69.54000 114.300
69.95000 282.800
70.36000 118.300
70.77000 102.600
71.18000 102.500
71.59000 128.400
72.00000 99.600
72.41000 101.200
72.82000 113.000
73.23000 175.000
73.64000 157.600
74.05000 99.000
74.46000 164.200
74.87000 105.000
75.28000 90.900
75.69000 106.600
76.10000 287.200
76.51000 114.200
76.92000 98.100
77.33000 105.300
77.74000 130.700
78.15000 138.700
78.56000 212.500
78.97000 165.900
79.38000 99.000
79.79000 98.300
80.20000 112.300
80.61000 198.000
81.02000 136.700
81.43000 339.900
81.84000 113.000
82.25000 101.600
82.66000 100.400
83.07000 151.300
83.48000 138.700
83.89000 140.500
84.30000 130.000
84.71000 112.900
85.12000 97.800
85.53000 98.500
85.94000 115.900
86.35000 177.700
86.76000 109.100
87.17000 117.100
87.58000 98.900
87.99000 102.600
88.40000 96.700
88.81000 130.700
89.22000 259.900
89.63000 115.700
90.04000 115.000
90.45000 102.500
90.86000 117.100
91.27000 115.300
91.68000 119.700
92.09000 122.900
92.50000 106.400
92.91000 111.200
93.32000 100.800
93.73000 113.700
94.14000 289.800
94.55000 155.100
94.96000 102.000
95.37000 86.900
95.78000 121.800
96.19000 116.400
96.60000 131.900
97.01000 114.500
97.42000 95.300
97.83000 107.100
98.24000 100.700
98.65000 160.600
99.06000 191.500
99.47000 445.100
99.88000 139.100
100.29 119.400
100.7 141.500
101.11 109.500
101.52 179.800
101.93 189.400
102.34 113.600
102.75 84.900
103.16 111.700
103.57 109.500
103.98 86.300
104.39 90.300
104.8 88.300
105.21 87.700
105.62 83.600
106.03 92.100
106.44 104.500
106.85 116.900
107.26 173.100
107.67 108.100
108.08 111.000
108.49 138.000
108.9 89.800
109.31 98.500
109.72 137.200
110.13 250.000
110.54 97.500
110.95 99.800
111.36 120.300
111.77 108.200
112.18 121.300
112.59 100.400
113 95.400
113.41 88.700
113.82 87.100
114.23 106.800
114.64 107.700
115.05 115.500
115.46 150.900
115.87 111.500
116.28 110.400
116.69 121.400
117.1 93.000
117.51 100.200
117.92 112.400
118.33 129.400
118.74 100.700
119.15 93.300
119.56 90.100
119.97 84.900
120.38 110.300
120.79 106.600
121.2 148.600
121.61 180.500
122.02 89.500
122.43 104.800
122.84 105.500
123.25 130.200
123.66 120.900
124.07 112.200
124.48 163.900
124.89 83.400
125.3 111.900
125.71 96.500
126.12 93.600
126.53 91.900
126.94 76.900
127.35 96.400
127.76 112.300
128.17 76.000
128.58 88.800
128.99 86.800
129.4 95.100
129.81 86.800
130.22 119.100
130.63 90.400
131 110.500

File: Li6425_450_12h_AQ_b1_OYJ_XRD.xy
10.00000 2996.000
10.41000 2663.600
10.82000 2357.200
11.23000 2166.300
11.64000 1970.500
12.05000 1908.700
12.46000 1786.100
12.87000 1591.600
13.28000 1583.500
13.69000 1605.000
14.10000 1570.800
14.51000 1503.600
14.92000 1453.700
15.33000 1625.900
15.74000 1621.600
16.15000 1724.000
16.56000 1842.100
16.97000 2024.100
17.38000 2121.800
17.79000 2038.500
18.20000 2248.200
18.61000 2202.600
19.02000 2352.700
19.43000 2330.300
19.84000 2188.400
20.25000 2066.700
20.66000 2137.800
21.07000 1756.200
21.48000 1685.400
21.89000 1518.400
22.30000 1332.900
22.71000 1217.500
23.12000 1173.300
23.53000 1008.700
23.94000 968.900
24.35000 16357.800
24.76000 875.300
25.17000 799.100
25.58000 1011.500
25.99000 739.100
26.40000 725.900
26.81000 700.700
27.22000 683.000
27.63000 621.400
28.04000 629.700
28.45000 621.400
28.86000 575.900
29.27000 622.900
29.68000 1232.600
30.09000 578.000
30.50000 519.300
30.91000 484.000
31.32000 427.700
31.73000 429.800
32.14000 440.800
32.55000 379.100
32.96000 407.600
33.37000 412.500
33.78000 378.200
34.19000 366.900
34.60000 455.500
35.01000 339.400
35.42000 336.300
35.83000 319.100
36.24000 325.200
36.65000 261.600
37.06000 266.900
37.47000 227.200
37.88000 282.500
38.29000 219.600
38.70000 246.800
39.11000 272.300
39.52000 208.200
39.93000 180.800
40.34000 156.200
40.75000 174.400
41.16000 125.900
41.57000 162.000
41.98000 155.600
42.39000 181.900
42.80000 2548.200
43.21000 131.800
43.62000 133.900
44.03000 103.600
44.44000 125.300
44.85000 116.900
45.26000 111.300
45.67000 354.100
46.08000 105.500
46.49000 103.700
46.90000 103.200
47.31000 123.800
47.72000 131.600
48.13000 121.200
48.54000 101.000
48.95000 99.300
49.36000 125.800
49.77000 544.700
50.18000 183.500
50.59000 132.900
51.00000 106.000
51.41000 107.700
51.82000 92.400
52.23000 230.800
52.64000 129.800
53.05000 435.400
53.46000 95.600
53.87000 82.900
54.28000 81.200
54.69000 78.800
55.10000 102.100
55.51000 91.400
55.92000 123.200
56.33000 489.100
56.74000 112.600
57.15000 85.400
57.56000 96.800
57.97000 93.600
58.38000 122.900
58.79000 109.900
59.20000 651.500
59.61000 88.800
60.02000 89.400
60.43000 85.300
60.84000 86.400
61.25000 120.800
61.66000 138.900
62.07000 120.600
62.48000 100.100
62.89000 71.100
63.30000 72.000
63.71000 91.700
64.12000 93.100
64.53000 87.000
64.94000 253.600
65.35000 165.400
65.76000 95.100
66.17000 100.300
66.58000 100.400
66.99000 79.000
67.40000 137.600
67.81000 1564.800
68.22000 129.400
68.63000 100.400
69.04000 96.400
69.45000 143.700
69.86000 509.900
70.27000 95.400
70.68000 73.400
71.09000 77.200
71.50000 74.500
71.91000 89.300
72.32000 107.100
72.73000 89.200
73.14000 274.100
73.55000 98.900
73.96000 91.500
74.37000 97.400
74.78000 78.800
75.19000 86.200
75.60000 116.800
76.01000 134.500
76.42000 84.300
76.83000 87.900
77.24000 83.100
77.65000 101.400
78.06000 120.800
78.47000 634.800
78.88000 69.100
79.29000 76.900
79.70000 92.600
80.11000 84.300
80.52000 137.700
80.93000 177.100
81.34000 84.400
81.75000 90.800
82.16000 82.200
82.57000 70.300
82.98000 110.000
83.39000 117.100
83.80000 127.800
84.21000 68.400
84.62000 126.300
85.03000 82.600
85.44000 94.400
85.85000 102.600
86.26000 169.700
86.67000 76.300
87.08000 97.100
87.49000 67.400
87.90000 71.900
88.31000 89.900
88.72000 289.300
89.13000 100.800
89.54000 71.500
89.95000 84.600
90.36000 83.800
90.77000 82.400
91.18000 78.200
91.59000 80.100
92.00000 74.300
92.41000 75.700
92.82000 82.700
93.23000 111.600
93.64000 180.300
94.05000 148.700
94.46000 98.200
94.87000 81.400
95.28000 94.100
95.69000 113.000
96.10000 99.200
96.51000 101.400
96.92000 90.400
97.33000 81.400
97.74000 99.100
98.15000 123.600
98.56000 140.600
98.97000 503.400
99.38000 114.600
99.79000 98.800
100.2 80.700
100.61 139.900
101.02 122.200
101.43 142.500
101.84 90.300
102.25 78.700
102.66 85.700
103.07 87.100
103.48 76.900
103.89 68.700
104.3 84.500
104.71 60.600
105.12 79.300
105.53 87.700
105.94 78.900
106.35 127.000
106.76 189.900
107.17 100.600
107.58 76.700
107.99 86.400
108.4 94.800
108.81 96.700
109.22 122.900
109.63 130.800
110.04 74.100
110.45 86.600
110.86 87.700
111.27 90.600
111.68 94.400
112.09 78.900
112.5 71.100
112.91 84.400
113.32 59.800
113.73 78.200
114.14 73.100
114.55 102.100
114.96 162.900
115.37 72.900
115.78 74.400
116.19 63.000
116.6 103.000
117.01 102.700
117.42 84.800
117.83 127.500
118.24 79.600
118.65 73.100
119.06 58.700
119.47 72.000
119.88 67.600
120.29 83.200
120.7 205.000
121.11 85.100
121.52 83.200
121.93 68.000
122.34 72.700
122.75 80.200
123.16 100.300
123.57 96.600
123.98 103.300
124.39 77.000
124.8 85.300
125.21 66.000
125.62 85.900
126.03 72.300
126.44 71.300
126.85 84.700
127.26 57.000
127.67 57.100
128.08 59.400
128.49 73.300
128.9 76.800
129.31 88.700
129.72 87.100
130.13 85.200
130.54 73.600
130.95 82.500
131 66.300

File: MQ50_XRD.xy
10.00000 2824.200
10.42000 2401.400
10.84000 2225.700
11.26000 1958.300
11.68000 1815.600
12.10000 1690.900
12.52000 1577.800
12.94000 1863.200
13.36000 1492.700
13.78000 1458.400
14.20000 1393.700
14.62000 1451.300
15.04000 1442.100
15.46000 2104.000
15.88000 1591.000
16.30000 1630.500
16.72000 1798.800
17.14000 1730.900
17.56000 1948.600
17.98000 1968.200
18.40000 2068.200
18.82000 2348.600
19.24000 2018.200
19.66000 2194.000
20.08000 1896.500
20.50000 1764.200
20.92000 1680.300
21.34000 1536.700
21.76000 1401.300
22.18000 1284.500
22.60000 1195.400
23.02000 1088.300
23.44000 1120.900
23.86000 1681.100
24.28000 1062.600
24.70000 802.800
25.12000 802.100
25.54000 840.000
25.96000 1301.700
26.38000 660.700
26.80000 762.700
27.22000 822.100
27.64000 594.800
28.06000 570.100
28.48000 536.000
28.90000 591.700
29.32000 696.800
29.74000 2508.200
30.16000 1328.500
30.58000 704.800
31.00000 1011.900
31.42000 665.200
31.84000 613.200
32.26000 1071.700
32.68000 682.700
33.10000 662.700
33.52000 512.000
33.94000 457.800
34.36000 461.900
34.78000 487.600
35.20000 441.300
35.62000 417.900
36.04000 443.000
36.46000 378.900
36.88000 435.600
37.30000 420.200
37.72000 394.700
38.14000 333.100
38.56000 337.100
38.98000 311.100
39.40000 312.600
39.82000 326.200
40.24000 277.900
40.66000 260.800
41.08000 255.800
41.50000 178.700
41.92000 266.900
42.34000 231.100
42.76000 195.400
43.18000 283.100
43.60000 235.000
44.02000 277.900
44.44000 205.600
44.86000 196.900
45.28000 198.000
45.70000 257.300
46.12000 207.700
46.54000 148.800
46.96000 192.000
47.38000 183.800
47.80000 158.900
48.22000 296.200
48.64000 347.900
49.06000 251.300
49.48000 226.900
49.90000 266.100
50.32000 174.700
50.74000 212.400
51.16000 281.700
51.58000 327.600
52.00000 385.300
52.42000 273.700
52.84000 248.200
53.26000 321.500
53.68000 321.700
54.10000 557.500
54.52000 279.100
54.94000 203.400
55.36000 196.300
55.78000 195.100
56.20000 222.300
56.62000 231.300
57.04000 238.800
57.46000 169.000
57.88000 193.900
58.30000 216.200
58.72000 223.900
59.14000 328.100
59.56000 297.200
59.98000 249.100
60.40000 232.100
60.82000 214.700
61.24000 166.400
61.66000 229.700
62.08000 211.900
62.50000 221.500
62.92000 238.300
63.34000 205.800
63.76000 216.100
64.18000 236.700
64.60000 194.500
65.02000 185.100
65.44000 196.000
65.86000 165.400
66.28000 190.400
66.70000 139.600
67.12000 138.600
67.54000 138.900
67.96000 158.400
68.38000 160.700
68.80000 175.700
69.22000 158.500
69.64000 163.000
70.06000 143.600
70.48000 133.600
70.90000 139.300
71.32000 159.000
71.74000 155.200
72.16000 132.000
72.58000 133.000
73.00000 119.000
73.42000 137.800
73.84000 156.800
74.26000 145.400
74.68000 151.000
75.10000 191.200
75.52000 153.000
75.94000 148.300
76.36000 137.100
76.78000 114.700
77.20000 115.200
77.62000 111.200
78.04000 133.400
78.46000 138.600
78.88000 149.000
79.30000 124.000
79.72000 154.500
80.14000 149.200
80.56000 155.400
80.98000 151.000
81.40000 127.300
81.82000 117.600
82.24000 133.200
82.66000 123.700
83.08000 119.800
83.50000 114.500
83.92000 137.700
84.34000 119.000
84.76000 169.100
85.18000 147.100
85.60000 169.900
86.02000 170.100
86.44000 166.500
86.86000 124.300
87.28000 134.200
87.70000 142.700
88.12000 138.100
88.54000 161.600
88.96000 133.700
89.38000 139.700
89.80000 158.100
90.22000 123.300
90.64000 146.600
91.06000 114.300
91.48000 120.700
91.90000 108.300
92.32000 116.900
92.74000 138.600
93.16000 121.900
93.58000 142.000
94.00000 163.500
94.42000 132.000
94.84000 121.500
95.26000 154.500
95.68000 152.100
96.10000 141.300
96.52000 132.100
96.94000 119.900
97.36000 141.400
97.78000 154.200
98.20000 137.400
98.62000 144.400
99.04000 151.700
99.46000 160.000
99.88000 129.300
100.3 139.300
100.72 135.700
101.14 156.800
101.56 140.100
101.98 144.200
102.4 163.000
102.82 161.500
103.24 138.000
103.66 156.500
104.08 140.900
104.5 144.000
104.92 133.200
105.34 143.000
105.76 109.300
106.18 148.000
106.6 130.100
107.02 124.800
107.44 161.100
107.86 124.500
108.28 125.900
108.7 137.300
109.12 118.400
109.54 120.000
109.96 132.400
110.38 131.000
110.8 136.500
111.22 149.500
111.64 129.900
112.06 149.600
112.48 115.900
112.9 147.700
113.32 131.700
113.74 135.200
114.16 113.100
114.58 137.200
115 127.500
115.42 131.500
115.84 95.700
116.26 137.300
116.68 122.000
117.1 109.000
117.52 106.100
117.94 96.400
118.36 134.000
118.78 117.900
119.2 133.300
119.62 114.200
120.04 131.100
120.46 121.600
120.88 136.400
121.3 136.900
121.72 121.100
122.14 129.800
122.56 137.900
122.98 149.200
123.4 116.800
123.82 146.200
124.24 136.100
124.66 121.300
125.08 133.100
125.5 129.000
125.92 131.500
126.34 144.200
126.76 143.200
127.18 137.900
127.6 149.100
128.02 144.900
128.44 114.500
128.86 136.700
129.28 122.100
129.7 137.100
130.12 143.900
130.54 116.500
130.96 126.400
131 135.300

File: MQ51_XRD.xy
10.00000 2696.200
10.42000 2578.100
10.84000 2290.400
11.26000 1872.800
11.68000 1876.600
12.10000 1669.300
12.52000 1701.800
12.94000 2176.000
13.36000 1497.500
13.78000 1350.700
14.20000 1477.600
14.62000 1498.600
15.04000 1429.900
15.46000 1926.500
15.88000 1569.700
16.30000 1558.400
16.72000 1679.300
17.14000 1747.200
17.56000 1847.900
17.98000 2108.600
18.40000 2423.700
18.82000 2261.900
19.24000 1988.200
19.66000 2243.900
20.08000 2141.400
20.50000 1834.200
20.92000 1752.700
21.34000 1539.200
21.76000 1470.000
22.18000 1283.400
22.60000 1201.000
23.02000 1111.400
23.44000 1194.000
23.86000 1976.500
24.28000 1043.900
24.70000 823.700
25.12000 722.200
25.54000 837.300
25.96000 1132.700
26.38000 672.200
26.80000 730.600
27.22000 640.900
27.64000 633.900
28.06000 582.000
28.48000 595.400
28.90000 554.000
29.32000 684.100
29.74000 2799.800
30.16000 1458.700
30.58000 685.500
31.00000 956.600
31.42000 650.700
31.84000 488.500
32.26000 712.100
32.68000 486.800
33.10000 583.000
33.52000 459.500
33.94000 438.000
34.36000 408.100
34.78000 486.800
35.20000 399.200
35.62000 398.000
36.04000 428.300
36.46000 418.800
36.88000 448.300
37.30000 417.900
37.72000 414.500
38.14000 360.700
38.56000 282.400
38.98000 297.600
39.40000 289.600
39.82000 375.900
40.24000 286.900
40.66000 226.800
41.08000 231.800
41.50000 224.700
41.92000 183.200
42.34000 250.600
42.76000 213.700
43.18000 259.200
43.60000 243.700
44.02000 278.500
44.44000 229.100
44.86000 210.000
45.28000 185.800
45.70000 257.300
46.12000 180.100
46.54000 163.700
46.96000 171.100
47.38000 157.000
47.80000 174.300
48.22000 288.800
48.64000 357.400
49.06000 302.000
49.48000 217.200
49.90000 203.100
50.32000 150.600
50.74000 178.000
51.16000 216.100
51.58000 177.200
52.00000 206.100
52.42000 210.900
52.84000 234.500
53.26000 306.200
53.68000 303.700
54.10000 452.000
54.52000 259.500
54.94000 205.000
55.36000 169.200
55.78000 198.700
56.20000 183.000
56.62000 218.600
57.04000 226.500
57.46000 171.300
57.88000 203.700
58.30000 173.100
58.72000 168.400
59.14000 210.900
59.56000 200.100
59.98000 203.300
60.40000 214.700
60.82000 190.100
61.24000 175.000
61.66000 167.300
62.08000 179.500
62.50000 193.700
62.92000 167.300
63.34000 159.100
63.76000 210.900
64.18000 179.700
64.60000 191.500
65.02000 155.100
65.44000 209.600
65.86000 166.200
66.28000 151.800
66.70000 150.500
67.12000 110.600
67.54000 142.800
67.96000 128.200
68.38000 129.600
68.80000 154.400
69.22000 170.000
69.64000 136.100
70.06000 115.200
70.48000 140.800
70.90000 128.100
71.32000 151.000
71.74000 117.600
72.16000 112.200
72.58000 118.700
73.00000 97.200
73.42000 113.900
73.84000 144.800
74.26000 129.800
74.68000 142.400
75.10000 157.200
75.52000 118.800
75.94000 100.000
76.36000 92.300
76.78000 114.500
77.20000 107.600
77.62000 119.600
78.04000 111.300
78.46000 133.300
78.88000 110.000
79.30000 123.800
79.72000 112.600
80.14000 99.400
80.56000 122.500
80.98000 101.200
81.40000 110.700
81.82000 111.400
82.24000 91.900
82.66000 78.700
83.08000 92.700
83.50000 110.800
83.92000 103.700
84.34000 111.900
84.76000 99.700
85.18000 114.600
85.60000 125.000
86.02000 124.500
86.44000 136.500
86.86000 128.900
87.28000 109.000
87.70000 129.000
88.12000 117.400
88.54000 109.800
88.96000 123.100
89.38000 121.700
89.80000 114.400
90.22000 143.900
90.64000 108.900
91.06000 122.100
91.48000 118.700
91.90000 98.900
92.32000 91.700
92.74000 120.500
93.16000 117.500
93.58000 112.900
94.00000 108.200
94.42000 113.600
94.84000 110.600
95.26000 117.600
95.68000 118.400
96.10000 117.200
96.52000 112.300
96.94000 104.200
97.36000 101.700
97.78000 119.700
98.20000 100.200
98.62000 119.300
99.04000 124.200
99.46000 100.800
99.88000 116.300
100.3 114.200
100.72 103.900
101.14 122.300
101.56 116.700
101.98 136.800
102.4 113.800
102.82 131.600
103.24 127.300
103.66 114.600
104.08 103.000
104.5 130.000
104.92 108.400
105.34 98.600
105.76 101.400
106.18 122.100
106.6 109.600
107.02 119.700
107.44 92.700
107.86 128.500
108.28 106.500
108.7 107.000
109.12 118.300
109.54 106.600
109.96 111.800
110.38 113.200
110.8 115.000
111.22 102.600
111.64 103.900
112.06 95.600
112.48 98.600
112.9 95.600
113.32 127.700
113.74 117.100
114.16 122.900
114.58 95.100
115 86.400
115.42 121.000
115.84 95.700
116.26 96.800
116.68 102.200
117.1 87.900
117.52 87.800
117.94 88.500
118.36 100.100
118.78 86.200
119.2 99.300
119.62 92.900
120.04 86.800
120.46 94.600
120.88 77.700
121.3 94.200
121.72 114.200
122.14 98.800
122.56 79.400
122.98 97.600
123.4 81.900
123.82 86.700
124.24 84.900
124.66 92.300
125.08 112.300
125.5 88.500
125.92 101.500
126.34 103.400
126.76 94.300
127.18 98.600
127.6 104.100
128.02 78.200
128.44 99.200
128.86 114.900
129.28 107.600
129.7 96.700
130.12 113.300
130.54 102.700
130.96 118.300
131 120.400

File: MQ53_XRD.xy
10.00000 2771.300
10.42000 2462.700
10.84000 2192.100
11.26000 1973.700
11.68000 1937.200
12.10000 1711.200
12.52000 1651.800
12.94000 2339.900
13.36000 1492.400
13.78000 1370.100
14.20000 1376.300
14.62000 1500.200
15.04000 1420.400
15.46000 2353.800
15.88000 1550.200
16.30000 1625.700
16.72000 1661.200
17.14000 1779.900
17.56000 1859.400
17.98000 1933.300
18.40000 2068.600
18.82000 2354.900
19.24000 1987.300
19.66000 2219.600
20.08000 1968.800
20.50000 1727.100
20.92000 1635.000
21.34000 1520.400
21.76000 1467.300
22.18000 1269.900
22.60000 1185.500
23.02000 1039.600
23.44000 1113.100
23.86000 2101.900
24.28000 948.500
24.70000 805.800
25.12000 763.100
25.54000 932.300
25.96000 1084.400
26.38000 661.300
26.80000 733.000
27.22000 856.100
27.64000 599.700
28.06000 507.800
28.48000 570.000
28.90000 546.600
29.32000 603.700
29.74000 2263.300
30.16000 1171.400
30.58000 647.700
31.00000 883.900
31.42000 687.100
31.84000 616.700
32.26000 975.800
32.68000 694.000
33.10000 649.100
33.52000 426.700
33.94000 455.700
34.36000 411.500
34.78000 428.900
35.20000 454.700
35.62000 415.300
36.04000 387.800
36.46000 443.600
36.88000 496.800
37.30000 396.500
37.72000 428.400
38.14000 359.100
38.56000 342.000
38.98000 306.600
39.40000 293.600
39.82000 333.500
40.24000 242.300
40.66000 257.800
41.08000 219.200
41.50000 224.200
41.92000 251.500
42.34000 207.600
42.76000 184.300
43.18000 250.600
43.60000 264.000
44.02000 305.900
44.44000 205.300
44.86000 210.800
45.28000 190.800
45.70000 255.100
46.12000 218.700
46.54000 154.300
46.96000 182.800
47.38000 184.000
47.80000 175.000
48.22000 345.800
48.64000 329.200
49.06000 239.200
49.48000 234.200
49.90000 248.500
50.32000 161.900
50.74000 194.000
51.16000 215.700
51.58000 267.400
52.00000 315.100
52.42000 258.200
52.84000 182.700
53.26000 276.300
53.68000 340.500
54.10000 538.900
54.52000 229.500
54.94000 202.500
55.36000 210.800
55.78000 178.700
56.20000 184.600
56.62000 198.700
57.04000 238.800
57.46000 180.900
57.88000 167.900
58.30000 184.200
58.72000 171.500
59.14000 232.100
59.56000 262.000
59.98000 243.400
60.40000 215.500
60.82000 190.500
61.24000 194.400
61.66000 176.100
62.08000 177.400
62.50000 173.400
62.92000 199.400
63.34000 193.100
63.76000 244.700
64.18000 213.100
64.60000 177.000
65.02000 177.200
65.44000 194.800
65.86000 155.100
66.28000 147.400
66.70000 123.400
67.12000 116.400
67.54000 125.400
67.96000 151.600
68.38000 138.100
68.80000 150.000
69.22000 159.700
69.64000 137.500
70.06000 118.100
70.48000 142.300
70.90000 123.300
71.32000 141.700
71.74000 121.700
72.16000 106.400
72.58000 91.800
73.00000 119.600
73.42000 124.800
73.84000 137.500
74.26000 134.700
74.68000 128.000
75.10000 164.600
75.52000 125.500
75.94000 104.000
76.36000 121.500
76.78000 115.000
77.20000 117.900
77.62000 129.000
78.04000 104.900
78.46000 129.200
78.88000 139.600
79.30000 126.900
79.72000 128.000
80.14000 112.300
80.56000 105.700
80.98000 116.200
81.40000 117.500
81.82000 122.100
82.24000 108.000
82.66000 97.700
83.08000 88.200
83.50000 95.200
83.92000 91.300
84.34000 126.900
84.76000 115.400
85.18000 141.400
85.60000 138.000
86.02000 129.000
86.44000 120.300
86.86000 115.100
87.28000 135.800
87.70000 137.100
88.12000 129.800
88.54000 125.200
88.96000 110.300
89.38000 115.800
89.80000 123.700
90.22000 118.600
90.64000 120.600
91.06000 124.500
91.48000 117.500
91.90000 107.700
92.32000 96.400
92.74000 111.900
93.16000 99.800
93.58000 128.200
94.00000 120.900
94.42000 107.000
94.84000 121.800
95.26000 109.200
95.68000 101.800
96.10000 108.800
96.52000 124.400
96.94000 114.400
97.36000 116.600
97.78000 116.700
98.20000 113.700
98.62000 124.300
99.04000 136.100
99.46000 130.300
99.88000 133.900
100.3 115.600
100.72 124.000
101.14 146.800
101.56 148.300
101.98 128.500
102.4 132.500
102.82 148.200
103.24 136.400
103.66 139.800
104.08 132.900
104.5 99.800
104.92 113.000
105.34 106.900
105.76 138.000
106.18 121.500
106.6 126.500
107.02 120.100
107.44 109.500
107.86 104.700
108.28 103.900
108.7 106.500
109.12 118.700
109.54 116.100
109.96 123.000
110.38 104.300
110.8 99.800
111.22 105.200
111.64 109.100
112.06 113.000
112.48 118.800
112.9 95.700
113.32 95.400
113.74 112.600
114.16 103.100
114.58 135.900
115 116.200
115.42 102.000
115.84 96.500
116.26 111.600
116.68 124.100
117.1 95.400
117.52 106.200
117.94 88.900
118.36 100.000
118.78 96.400
119.2 91.900
119.62 108.400
120.04 89.200
120.46 92.900
120.88 105.700
121.3 105.100
121.72 92.800
122.14 112.200
122.56 109.900
122.98 108.700
123.4 105.800
123.82 116.400
124.24 111.300
124.66 91.200
125.08 98.600
125.5 97.800
125.92 123.400
126.34 118.200
126.76 107.100
127.18 98.400
127.6 103.700
128.02 126.700
128.44 112.100
128.86 100.300
129.28 105.900
129.7 96.800
130.12 105.800
130.54 100.300
130.96 86.500
131 110.900